Accel_X,Accel_Y,Accel_Z,Gyro_X,Gyro_Y,Gyro_Z,Mag_X,Mag_Y,Mag_Z
-9.102754592895508,1.742978811264038,3.3279404640197754,0.1443433314561844,-0.06285060197114944,-0.14274543523788452,0.0,0.0,0.0
-9.11233139038086,1.7166426181793213,3.313575267791748,0.14594122767448425,-0.06072007492184639,-0.14540860056877136,0.0,0.0,0.0
-9.136273384094238,1.7070658206939697,3.289633274078369,0.14753912389278412,-0.058589547872543335,-0.14594122767448425,0.0,0.0,0.0
-9.14345645904541,1.7190368175506592,3.3039984703063965,0.14540860056877136,-0.05805691331624985,-0.14966966211795807,0.0,0.0,0.0
-9.105149269104004,1.7357962131500244,3.335123062133789,0.14274543523788452,-0.059122178703546524,-0.14753912389278412,0.0,0.0,0.0
-9.10993766784668,1.7477672100067139,3.3016042709350586,0.14008228480815887,-0.0601874440908432,-0.15020228922367096,0.0,0.0,0.0
-9.114726066589355,1.7525556087493896,3.2776620388031006,0.1390170156955719,-0.059122178703546524,-0.15073493123054504,0.0,0.0,0.0
-9.126696586608887,1.7501614093780518,3.272873640060425,0.14114753901958466,-0.05645901709794998,-0.14966966211795807,0.0,0.0,0.0
-9.14345645904541,1.7405846118927002,3.2824504375457764,0.1432780772447586,-0.055393751710653305,-0.14913703501224518,0.0,0.0,0.0
-9.129091262817383,1.7190368175506592,3.3016042709350586,0.14594122767448425,-0.05432849004864693,-0.14540860056877136,0.0,0.0,0.0
-9.141061782836914,1.742978811264038,3.294421672821045,0.1486043930053711,-0.05273059383034706,-0.1443433314561844,0.0,0.0,0.0
-9.150638580322266,1.7621324062347412,3.294421672821045,0.1486043930053711,-0.0511326938867569,-0.14008228480815887,0.0,0.0,0.0
-9.14585018157959,1.7549498081207275,3.3016042709350586,0.14913703501224518,-0.052197959274053574,-0.14221280813217163,0.0,0.0,0.0
-9.138668060302734,1.7381904125213623,3.313575267791748,0.14913703501224518,-0.054861120879650116,-0.1443433314561844,0.0,0.0,0.0
-9.157821655273438,1.7597382068634033,3.315969467163086,0.14753912389278412,-0.054861120879650116,-0.14913703501224518,0.0,0.0,0.0
-9.184157371520996,1.7334020137786865,3.335123062133789,0.14594122767448425,-0.0511326938867569,-0.1486043930053711,0.0,0.0,0.0
-9.181763648986816,1.745373010635376,3.3279404640197754,0.1443433314561844,-0.0463390052318573,-0.14594122767448425,0.0,0.0,0.0
-9.174580574035645,1.7262194156646729,3.315969467163086,0.14700649678707123,-0.047404270619153976,-0.1438107043504715,0.0,0.0,0.0
-9.174580574035645,1.6855180263519287,3.313575267791748,0.1480717658996582,-0.05006743222475052,-0.14221280813217163,0.0,0.0,0.0
-9.174580574035645,1.7046716213226318,3.332728862762451,0.1480717658996582,-0.05326322466135025,-0.14753912389278412,0.0,0.0,0.0
-9.186552047729492,1.7046716213226318,3.3087868690490723,0.15073493123054504,-0.054861120879650116,-0.14966966211795807,0.0,0.0,0.0
-9.186552047729492,1.721431016921997,3.31118106842041,0.15073493123054504,-0.05592638626694679,-0.15446335077285767,0.0,0.0,0.0
-9.174580574035645,1.7166426181793213,3.3207578659057617,0.1528654545545578,-0.055393751710653305,-0.15606124699115753,0.0,0.0,0.0
-9.165003776550293,1.6950948238372803,3.332728862762451,0.14913703501224518,-0.05432849004864693,-0.15020228922367096,0.0,0.0,0.0
-9.17697525024414,1.6831238269805908,3.3303346633911133,0.14966966211795807,-0.051665328443050385,-0.14700649678707123,0.0,0.0,0.0
-9.184157371520996,1.6950948238372803,3.31118106842041,0.1480717658996582,-0.0511326938867569,-0.14061491191387177,0.0,0.0,0.0
-9.20091724395752,1.721431016921997,3.3446998596191406,0.14700649678707123,-0.0511326938867569,-0.14647386968135834,0.0,0.0,0.0
-9.220070838928223,1.702277421951294,3.3303346633911133,0.14540860056877136,-0.05060006305575371,-0.14966966211795807,0.0,0.0,0.0
-9.23682975769043,1.6663644313812256,3.313575267791748,0.14753912389278412,-0.04580637440085411,-0.15393072366714478,0.0,0.0,0.0
-9.251195907592773,1.6400281190872192,3.318363666534424,0.14966966211795807,-0.03994741663336754,-0.15659387409687042,0.0,0.0,0.0
-9.275137901306152,1.6400281190872192,3.31118106842041,0.15180018544197083,-0.037816889584064484,-0.1528654545545578,0.0,0.0,0.0
-9.270349502563477,1.6687586307525635,3.332728862762451,0.15073493123054504,-0.037284258753061295,-0.14913703501224518,0.0,0.0,0.0
-9.251195907592773,1.6663644313812256,3.332728862762451,0.1533980816602707,-0.03568635880947113,-0.14274543523788452,0.0,0.0,0.0
-9.232041358947754,1.656787633895874,3.3231520652770996,0.15126755833625793,-0.03675162419676781,-0.14487597346305847,0.0,0.0,0.0
-9.222464561462402,1.6472108364105225,3.315969467163086,0.14753912389278412,-0.03621899336576462,-0.14540860056877136,0.0,0.0,0.0
-9.215282440185547,1.6352397203445435,3.2992100715637207,0.14487597346305847,-0.037284258753061295,-0.1443433314561844,0.0,0.0,0.0
-9.210494041442871,1.6519992351531982,3.296815872192383,0.14274543523788452,-0.033555831760168076,-0.14274543523788452,0.0,0.0,0.0
-9.196128845214844,1.6352397203445435,3.3039984703063965,0.1438107043504715,-0.0324905663728714,-0.14487597346305847,0.0,0.0,0.0
-9.193734169006348,1.6184803247451782,3.2992100715637207,0.14114753901958466,-0.02876214124262333,-0.1480717658996582,0.0,0.0,0.0
-9.198522567749023,1.623268723487854,3.2848448753356934,0.1432780772447586,-0.03142530098557472,-0.14647386968135834,0.0,0.0,0.0
-9.188945770263672,1.6519992351531982,3.2776620388031006,0.1432780772447586,-0.03568635880947113,-0.14274543523788452,0.0,0.0,0.0
-9.193734169006348,1.656787633895874,3.3063926696777344,0.14221280813217163,-0.037284258753061295,-0.14114753901958466,0.0,0.0,0.0
-9.210494041442871,1.6472108364105225,3.315969467163086,0.13795174658298492,-0.030360037460923195,-0.14221280813217163,0.0,0.0,0.0
-9.215282440185547,1.6328455209732056,3.3255462646484375,0.13741911947727203,-0.023435818031430244,-0.14061491191387177,0.0,0.0,0.0
-9.198522567749023,1.6089035272598267,3.3279404640197754,0.13528859615325928,-0.022903187200427055,-0.138484388589859,0.0,0.0,0.0
-9.165003776550293,1.577778935432434,3.3231520652770996,0.13795174658298492,-0.02503371611237526,-0.13635385036468506,0.0,0.0,0.0
-9.186552047729492,1.5873557329177856,3.3087868690490723,0.13741911947727203,-0.029827404767274857,-0.138484388589859,0.0,0.0,0.0
-9.220070838928223,1.5945383310317993,3.3231520652770996,0.14168018102645874,-0.029827404767274857,-0.13688649237155914,0.0,0.0,0.0
-9.210494041442871,1.6089035272598267,3.3063926696777344,0.1432780772447586,-0.027164245024323463,-0.13741911947727203,0.0,0.0,0.0
-9.2033109664917,1.6089035272598267,3.2848448753356934,0.14168018102645874,-0.02077265828847885,-0.13582122325897217,0.0,0.0,0.0
-9.222464561462402,1.5969325304031372,3.2824504375457764,0.13688649237155914,-0.018642129376530647,-0.13209278881549835,0.0,0.0,0.0
-9.210494041442871,1.6496050357818604,3.292027473449707,0.12889699637889862,-0.02077265828847885,-0.13209278881549835,0.0,0.0,0.0
-9.222464561462402,1.6424224376678467,3.2776620388031006,0.1257012039422989,-0.022370554506778717,-0.13102753460407257,0.0,0.0,0.0
-9.208099365234375,1.6328455209732056,3.2776620388031006,0.1257012039422989,-0.02183792181313038,-0.13741911947727203,0.0,0.0,0.0
-9.215282440185547,1.6352397203445435,3.2824504375457764,0.13156016170978546,-0.018642129376530647,-0.1347559541463852,0.0,0.0,0.0
-9.23682975769043,1.6448166370391846,3.289633274078369,0.1342233270406723,-0.017044231295585632,-0.13156016170978546,0.0,0.0,0.0
-9.215282440185547,1.625662922859192,3.296815872192383,0.1347559541463852,-0.01225054170936346,-0.12729910016059875,0.0,0.0,0.0
-9.227252960205078,1.599326729774475,3.2537200450897217,0.13209278881549835,-0.006924218963831663,-0.12410331517457962,0.0,0.0,0.0
-9.239224433898926,1.5897499322891235,3.2752678394317627,0.12729910016059875,-0.005858954507857561,-0.12783174216747284,0.0,0.0,0.0
-9.241618156433105,1.5969325304031372,3.2872390747070312,0.12463594228029251,-0.007989483885467052,-0.1294296383857727,0.0,0.0,0.0
-9.241618156433105,1.6041151285171509,3.292027473449707,0.12197278439998627,-0.011717909015715122,-0.13315805792808533,0.0,0.0,0.0
-9.241618156433105,1.5873557329177856,3.318363666534424,0.1257012039422989,-0.011185277253389359,-0.12729910016059875,0.0,0.0,0.0
-9.241618156433105,1.5729905366897583,3.315969467163086,0.1299622654914856,-0.011185277253389359,-0.12410331517457962,0.0,0.0,0.0
-9.232041358947754,1.558625340461731,3.3207578659057617,0.13262543082237244,-0.010120012797415257,-0.12144014984369278,0.0,0.0,0.0
-9.23682975769043,1.5825673341751099,3.315969467163086,0.1336906999349594,-0.007989483885467052,-0.12463594228029251,0.0,0.0,0.0
-9.23682975769043,1.6089035272598267,3.3039984703063965,0.13102753460407257,-0.004261057823896408,-0.12836436927318573,0.0,0.0,0.0
-9.217676162719727,1.599326729774475,3.294421672821045,0.1294296383857727,0.0,-0.13102753460407257,0.0,0.0,0.0
-9.23443603515625,1.5849615335464478,3.2776620388031006,0.1257012039422989,0.004261057823896408,-0.13209278881549835,0.0,0.0,0.0
-9.193734169006348,1.5538369417190552,3.294421672821045,0.12144014984369278,0.007456851191818714,-0.12729910016059875,0.0,0.0,0.0
-9.205705642700195,1.5729905366897583,3.3039984703063965,0.11504856497049332,0.006924218963831663,-0.12250541895627975,0.0,0.0,0.0
-9.23682975769043,1.5921441316604614,3.294421672821045,0.11398330330848694,0.003195793367922306,-0.12090751528739929,0.0,0.0,0.0
-9.244012832641602,1.5873557329177856,3.2776620388031006,0.1161138266324997,-0.003728425595909357,-0.12303804606199265,0.0,0.0,0.0
-9.21288776397705,1.5825673341751099,3.296815872192383,0.12410331517457962,-0.006391586735844612,-0.12250541895627975,0.0,0.0,0.0
-9.25598430633545,1.5825673341751099,3.289633274078369,0.12676647305488586,-0.00532632227987051,-0.125168576836586,0.0,0.0,0.0
-9.248801231384277,1.5825673341751099,3.3279404640197754,0.12463594228029251,-0.003195793367922306,-0.12836436927318573,0.0,0.0,0.0
-9.227252960205078,1.5729905366897583,3.3231520652770996,0.1155811995267868,-0.000532632227987051,-0.1342233270406723,0.0,0.0,0.0
-9.21288776397705,1.5634137392044067,3.2824504375457764,0.11025487631559372,0.0,-0.12889699637889862,0.0,0.0,0.0
-9.21288776397705,1.5682021379470825,3.296815872192383,0.10759171098470688,0.003195793367922306,-0.12623384594917297,0.0,0.0,0.0
-9.21288776397705,1.580173134803772,3.31118106842041,0.11238539963960648,0.00532632227987051,-0.11984225362539291,0.0,0.0,0.0
-9.2033109664917,1.599326729774475,3.3063926696777344,0.11771172285079956,0.00532632227987051,-0.12144014984369278,0.0,0.0,0.0
-9.196128845214844,1.601720929145813,3.3063926696777344,0.12144014984369278,0.004793690051883459,-0.12250541895627975,0.0,0.0,0.0
-9.193734169006348,1.6136919260025024,3.313575267791748,0.12144014984369278,0.004261057823896408,-0.12676647305488586,0.0,0.0,0.0
-9.184157371520996,1.659181833267212,3.3087868690490723,0.11291803419589996,0.006391586735844612,-0.1294296383857727,0.0,0.0,0.0
-9.157821655273438,1.6472108364105225,3.2872390747070312,0.10865698009729385,0.006391586735844612,-0.12676647305488586,0.0,0.0,0.0
-9.208099365234375,1.6759412288665771,3.292027473449707,0.10599381476640701,0.007456851191818714,-0.1257012039422989,0.0,0.0,0.0
-9.21288776397705,1.678335428237915,3.2824504375457764,0.11025487631559372,0.008522115647792816,-0.12357068061828613,0.0,0.0,0.0
-9.188945770263672,1.6543934345245361,3.270479440689087,0.11398330330848694,0.011717909015715122,-0.1257012039422989,0.0,0.0,0.0
-9.169792175292969,1.6304513216018677,3.265691041946411,0.11185277253389359,0.013848437927663326,-0.1257012039422989,0.0,0.0,0.0
-9.160215377807617,1.6376339197158813,3.248931646347046,0.1113201379776001,0.016511598601937294,-0.12729910016059875,0.0,0.0,0.0
-9.14345645904541,1.6400281190872192,3.251325845718384,0.10972224175930023,0.015446335077285767,-0.12889699637889862,0.0,0.0,0.0
-9.165003776550293,1.625662922859192,3.265691041946411,0.1155811995267868,0.01225054170936346,-0.12729910016059875,0.0,0.0,0.0
-9.162610054016113,1.6376339197158813,3.272873640060425,0.1155811995267868,0.007456851191818714,-0.125168576836586,0.0,0.0,0.0
-9.138668060302734,1.6687586307525635,3.270479440689087,0.11238539963960648,0.006924218963831663,-0.12357068061828613,0.0,0.0,0.0
-9.167398452758789,1.6519992351531982,3.2632968425750732,0.1113201379776001,0.007989483885467052,-0.12889699637889862,0.0,0.0,0.0
-9.117119789123535,1.6304513216018677,3.2800562381744385,0.10972224175930023,0.007456851191818714,-0.13635385036468506,0.0,0.0,0.0
-9.129091262817383,1.6328455209732056,3.248931646347046,0.11025487631559372,0.007456851191818714,-0.13688649237155914,0.0,0.0,0.0
-9.124302864074707,1.6543934345245361,3.2561142444610596,0.10705908387899399,0.009587380103766918,-0.13635385036468506,0.0,0.0,0.0
-9.107542991638184,1.6687586307525635,3.2872390747070312,0.11185277253389359,0.01225054170936346,-0.1304948925971985,0.0,0.0,0.0
-9.117119789123535,1.6519992351531982,3.2752678394317627,0.11185277253389359,0.012783173471689224,-0.12676647305488586,0.0,0.0,0.0
-9.148244857788086,1.6424224376678467,3.2297780513763428,0.11238539963960648,0.011717909015715122,-0.12144014984369278,0.0,0.0,0.0
-9.136273384094238,1.625662922859192,3.24414324760437,0.10865698009729385,0.012783173471689224,-0.12090751528739929,0.0,0.0,0.0
-9.131484985351562,1.6304513216018677,3.251325845718384,0.10865698009729385,0.013848437927663326,-0.12836436927318573,0.0,0.0,0.0
-9.126696586608887,1.6280571222305298,3.2537200450897217,0.10865698009729385,0.01225054170936346,-0.13315805792808533,0.0,0.0,0.0
-9.10993766784668,1.599326729774475,3.270479440689087,0.10972224175930023,0.01065264455974102,-0.13262543082237244,0.0,0.0,0.0
-9.126696586608887,1.6136919260025024,3.2585084438323975,0.11078750342130661,0.00532632227987051,-0.12623384594917297,0.0,0.0,0.0
-9.133879661560059,1.6400281190872192,3.24414324760437,0.10865698009729385,0.002663161139935255,-0.1299622654914856,0.0,0.0,0.0
-9.141061782836914,1.6352397203445435,3.248931646347046,0.1065264493227005,0.0,-0.13635385036468506,0.0,0.0,0.0
-9.133879661560059,1.625662922859192,3.2561142444610596,0.10386328399181366,0.003728425595909357,-0.14061491191387177,0.0,0.0,0.0
-9.117119789123535,1.6304513216018677,3.251325845718384,0.10546118766069412,0.009054748341441154,-0.1390170156955719,0.0,0.0,0.0
-9.150638580322266,1.6639702320098877,3.2345664501190186,0.10918960720300674,0.013315806165337563,-0.13528859615325928,0.0,0.0,0.0
-9.126696586608887,1.6376339197158813,3.2537200450897217,0.10918960720300674,0.013848437927663326,-0.1299622654914856,0.0,0.0,0.0
-9.10993766784668,1.6352397203445435,3.2393548488616943,0.10812434554100037,0.014381070621311665,-0.12889699637889862,0.0,0.0,0.0
-9.095572471618652,1.6472108364105225,3.2297780513763428,0.10439591854810715,0.013315806165337563,-0.12729910016059875,0.0,0.0,0.0
-9.0859956741333,1.6615760326385498,3.2345664501190186,0.1065264493227005,0.010120012797415257,-0.13528859615325928,0.0,0.0,0.0
-9.093177795410156,1.678335428237915,3.2369606494903564,0.10812434554100037,0.010120012797415257,-0.13315805792808533,0.0,0.0,0.0
-9.083600997924805,1.623268723487854,3.2417490482330322,0.1065264493227005,0.009054748341441154,-0.1347559541463852,0.0,0.0,0.0
-9.066842079162598,1.6328455209732056,3.248931646347046,0.1017327606678009,0.014381070621311665,-0.13262543082237244,0.0,0.0,0.0
-9.071630477905273,1.6519992351531982,3.2537200450897217,0.10279802232980728,0.015446335077285767,-0.13262543082237244,0.0,0.0,0.0
-9.090784072875977,1.6519992351531982,3.2537200450897217,0.10546118766069412,0.014381070621311665,-0.13582122325897217,0.0,0.0,0.0
-9.097966194152832,1.623268723487854,3.2369606494903564,0.1065264493227005,0.00532632227987051,-0.13795174658298492,0.0,0.0,0.0
-9.069235801696777,1.6112977266311646,3.2561142444610596,0.10492855310440063,-0.002130528911948204,-0.14008228480815887,0.0,0.0,0.0
-9.071630477905273,1.6448166370391846,3.224989652633667,0.10705908387899399,0.000532632227987051,-0.13741911947727203,0.0,0.0,0.0
-9.081207275390625,1.6424224376678467,3.2154128551483154,0.10812434554100037,0.007989483885467052,-0.13635385036468506,0.0,0.0,0.0
-9.078812599182129,1.6184803247451782,3.224989652633667,0.10865698009729385,0.011185277253389359,-0.13741911947727203,0.0,0.0,0.0
-9.050082206726074,1.6089035272598267,3.2393548488616943,0.1065264493227005,0.005858954507857561,-0.1395496428012848,0.0,0.0,0.0
-9.033323287963867,1.6400281190872192,3.201047658920288,0.10546118766069412,0.002663161139935255,-0.1443433314561844,0.0,0.0,0.0
-9.062053680419922,1.6376339197158813,3.181894063949585,0.1065264493227005,0.001065264455974102,-0.14274543523788452,0.0,0.0,0.0
-9.057265281677246,1.6304513216018677,3.205836057662964,0.10812434554100037,0.001597896683961153,-0.13688649237155914,0.0,0.0,0.0
-9.042900085449219,1.6280571222305298,3.227383852005005,0.10918960720300674,-0.002663161139935255,-0.1304948925971985,0.0,0.0,0.0
-9.033323287963867,1.623268723487854,3.227383852005005,0.10705908387899399,-0.003728425595909357,-0.12889699637889862,0.0,0.0,0.0
-9.026140213012695,1.6089035272598267,3.2321722507476807,0.10599381476640701,-0.004793690051883459,-0.13315805792808533,0.0,0.0,0.0
-9.023746490478516,1.6184803247451782,3.2393548488616943,0.10492855310440063,0.001597896683961153,-0.1347559541463852,0.0,0.0,0.0
-9.011775016784668,1.625662922859192,3.2369606494903564,0.1065264493227005,0.002130528911948204,-0.1347559541463852,0.0,0.0,0.0
-9.02135181427002,1.6328455209732056,3.227383852005005,0.10492855310440063,0.002130528911948204,-0.13635385036468506,0.0,0.0,0.0
-9.035717010498047,1.6304513216018677,3.220201253890991,0.10812434554100037,-0.003195793367922306,-0.13795174658298492,0.0,0.0,0.0
-8.995016098022461,1.625662922859192,3.2297780513763428,0.10812434554100037,-0.001065264455974102,-0.138484388589859,0.0,0.0,0.0
-9.002198219299316,1.6304513216018677,3.220201253890991,0.10759171098470688,-0.004261057823896408,-0.13741911947727203,0.0,0.0,0.0
-8.98543930053711,1.6208745241165161,3.2130186557769775,0.10812434554100037,-0.003195793367922306,-0.1304948925971985,0.0,0.0,0.0
-8.96389102935791,1.625662922859192,3.2106244564056396,0.11078750342130661,-0.011717909015715122,-0.1304948925971985,0.0,0.0,0.0
-8.959102630615234,1.6352397203445435,3.2130186557769775,0.11185277253389359,-0.008522115647792816,-0.13102753460407257,0.0,0.0,0.0
-8.987833023071289,1.6208745241165161,3.2178070545196533,0.10972224175930023,-0.006924218963831663,-0.1347559541463852,0.0,0.0,0.0
-9.009381294250488,1.6065093278884888,3.2297780513763428,0.10439591854810715,-0.001597896683961153,-0.13262543082237244,0.0,0.0,0.0
-8.99740982055664,1.599326729774475,3.205836057662964,0.10386328399181366,-0.003195793367922306,-0.1299622654914856,0.0,0.0,0.0
-8.987833023071289,1.6136919260025024,3.1938650608062744,0.10386328399181366,-0.006391586735844612,-0.12783174216747284,0.0,0.0,0.0
-8.980650901794434,1.6208745241165161,3.1962592601776123,0.10492855310440063,-0.006924218963831663,-0.13262543082237244,0.0,0.0,0.0
-8.98543930053711,1.6065093278884888,3.205836057662964,0.10546118766069412,-0.006924218963831663,-0.13102753460407257,0.0,0.0,0.0
-9.006986618041992,1.6065093278884888,3.222595453262329,0.10705908387899399,-0.003728425595909357,-0.13262543082237244,0.0,0.0,0.0
-9.002198219299316,1.577778935432434,3.220201253890991,0.10705908387899399,-0.006924218963831663,-0.1299622654914856,0.0,0.0,0.0
-9.011775016784668,1.5753847360610962,3.2297780513763428,0.10759171098470688,-0.007456851191818714,-0.12836436927318573,0.0,0.0,0.0
-9.026140213012695,1.5849615335464478,3.227383852005005,0.10439591854810715,-0.013315806165337563,-0.12889699637889862,0.0,0.0,0.0
-9.040505409240723,1.5849615335464478,3.2130186557769775,0.10279802232980728,-0.013315806165337563,-0.1257012039422989,0.0,0.0,0.0
-9.050082206726074,1.5729905366897583,3.2321722507476807,0.1022653877735138,-0.014381070621311665,-0.12676647305488586,0.0,0.0,0.0
-9.081207275390625,1.5873557329177856,3.203441858291626,0.10386328399181366,-0.016511598601937294,-0.12410331517457962,0.0,0.0,0.0
-9.07641887664795,1.5945383310317993,3.2321722507476807,0.10599381476640701,-0.018642129376530647,-0.125168576836586,0.0,0.0,0.0
-9.057265281677246,1.599326729774475,3.246537446975708,0.1065264493227005,-0.020240025594830513,-0.125168576836586,0.0,0.0,0.0
-9.050082206726074,1.5969325304031372,3.2297780513763428,0.10812434554100037,-0.01810949668288231,-0.12729910016059875,0.0,0.0,0.0
-9.07641887664795,1.5753847360610962,3.1914708614349365,0.10812434554100037,-0.013848437927663326,-0.12729910016059875,0.0,0.0,0.0
-9.045293807983398,1.625662922859192,3.179499864578247,0.10439591854810715,-0.013315806165337563,-0.12836436927318573,0.0,0.0,0.0
-9.026140213012695,1.5897499322891235,3.2106244564056396,0.10492855310440063,-0.014381070621311665,-0.12729910016059875,0.0,0.0,0.0
-9.02135181427002,1.580173134803772,3.201047658920288,0.10599381476640701,-0.02077265828847885,-0.12410331517457962,0.0,0.0,0.0
-9.033323287963867,1.5849615335464478,3.179499864578247,0.10972224175930023,-0.027164245024323463,-0.12144014984369278,0.0,0.0,0.0
-9.05487060546875,1.580173134803772,3.1938650608062744,0.10439591854810715,-0.02822950854897499,-0.11984225362539291,0.0,0.0,0.0
-9.05487060546875,1.599326729774475,3.205836057662964,0.09960222989320755,-0.027164245024323463,-0.1257012039422989,0.0,0.0,0.0
-9.081207275390625,1.5897499322891235,3.2082302570343018,0.10120012611150742,-0.022370554506778717,-0.12623384594917297,0.0,0.0,0.0
-9.066842079162598,1.5753847360610962,3.2130186557769775,0.10546118766069412,-0.020240025594830513,-0.12197278439998627,0.0,0.0,0.0
-9.042900085449219,1.5682021379470825,3.2178070545196533,0.10972224175930023,-0.020240025594830513,-0.11451593041419983,0.0,0.0,0.0
-9.035717010498047,1.5849615335464478,3.222595453262329,0.10918960720300674,-0.022370554506778717,-0.1155811995267868,0.0,0.0,0.0
-9.030928611755371,1.6304513216018677,3.2417490482330322,0.10865698009729385,-0.02183792181313038,-0.12090751528739929,0.0,0.0,0.0
-9.02135181427002,1.6304513216018677,3.224989652633667,0.10599381476640701,-0.01757686398923397,-0.12357068061828613,0.0,0.0,0.0
-9.01895809173584,1.6041151285171509,3.224989652633667,0.10066749155521393,-0.013315806165337563,-0.12410331517457962,0.0,0.0,0.0
-9.038111686706543,1.5921441316604614,3.222595453262329,0.09960222989320755,-0.009587380103766918,-0.12197278439998627,0.0,0.0,0.0
-9.062053680419922,1.6065093278884888,3.2130186557769775,0.10333065688610077,-0.012783173471689224,-0.11877699196338654,0.0,0.0,0.0
-9.059659004211426,1.6280571222305298,3.203441858291626,0.10599381476640701,-0.014913702383637428,-0.11824435740709305,0.0,0.0,0.0
-9.057265281677246,1.5945383310317993,3.1962592601776123,0.10812434554100037,-0.02183792181313038,-0.1155811995267868,0.0,0.0,0.0
-9.083600997924805,1.6112977266311646,3.2154128551483154,0.10599381476640701,-0.022903187200427055,-0.11877699196338654,0.0,0.0,0.0
-9.0859956741333,1.6089035272598267,3.2082302570343018,0.10492855310440063,-0.023435818031430244,-0.11877699196338654,0.0,0.0,0.0
-9.069235801696777,1.6041151285171509,3.1866824626922607,0.10279802232980728,-0.02130528911948204,-0.12303804606199265,0.0,0.0,0.0
-9.059659004211426,1.6376339197158813,3.1890766620635986,0.10546118766069412,-0.02130528911948204,-0.12357068061828613,0.0,0.0,0.0
-9.01895809173584,1.6400281190872192,3.2417490482330322,0.10705908387899399,-0.02822950854897499,-0.12676647305488586,0.0,0.0,0.0
-9.040505409240723,1.6400281190872192,3.224989652633667,0.10812434554100037,-0.034088462591171265,-0.12463594228029251,0.0,0.0,0.0
-9.042900085449219,1.6304513216018677,3.19865345954895,0.10705908387899399,-0.03462109714746475,-0.12623384594917297,0.0,0.0,0.0
-9.035717010498047,1.625662922859192,3.205836057662964,0.11025487631559372,-0.029294773936271667,-0.12676647305488586,0.0,0.0,0.0
-9.047688484191895,1.6304513216018677,3.251325845718384,0.11238539963960648,-0.02450108341872692,-0.1299622654914856,0.0,0.0,0.0
-9.078812599182129,1.623268723487854,3.220201253890991,0.11238539963960648,-0.023435818031430244,-0.12836436927318573,0.0,0.0,0.0
-9.097966194152832,1.5921441316604614,3.224989652633667,0.10972224175930023,-0.023968450725078583,-0.125168576836586,0.0,0.0,0.0
-9.066842079162598,1.6280571222305298,3.227383852005005,0.10918960720300674,-0.027696875855326653,-0.12250541895627975,0.0,0.0,0.0
-9.050082206726074,1.6496050357818604,3.224989652633667,0.10599381476640701,-0.033555831760168076,-0.12144014984369278,0.0,0.0,0.0
-9.057265281677246,1.623268723487854,3.220201253890991,0.10546118766069412,-0.034088462591171265,-0.11984225362539291,0.0,0.0,0.0
-9.026140213012695,1.623268723487854,3.201047658920288,0.10546118766069412,-0.033555831760168076,-0.11984225362539291,0.0,0.0,0.0
-9.059659004211426,1.623268723487854,3.227383852005005,0.11025487631559372,-0.02876214124262333,-0.11824435740709305,0.0,0.0,0.0
-9.038111686706543,1.6089035272598267,3.246537446975708,0.11504856497049332,-0.03142530098557472,-0.12197278439998627,0.0,0.0,0.0
-9.016563415527344,1.6089035272598267,3.2585084438323975,0.11984225362539291,-0.03675162419676781,-0.12463594228029251,0.0,0.0,0.0
-9.033323287963867,1.6160861253738403,3.2632968425750732,0.1203748881816864,-0.041012682020664215,-0.12250541895627975,0.0,0.0,0.0
-9.08838939666748,1.5921441316604614,3.246537446975708,0.11504856497049332,-0.03994741663336754,-0.12197278439998627,0.0,0.0,0.0
-9.078812599182129,1.6328455209732056,3.2393548488616943,0.10918960720300674,-0.03195793554186821,-0.11877699196338654,0.0,0.0,0.0
-9.042900085449219,1.6376339197158813,3.24414324760437,0.10386328399181366,-0.029294773936271667,-0.12090751528739929,0.0,0.0,0.0
-9.040505409240723,1.6160861253738403,3.251325845718384,0.10812434554100037,-0.030360037460923195,-0.12144014984369278,0.0,0.0,0.0
-9.050082206726074,1.6065093278884888,3.251325845718384,0.11238539963960648,-0.03302319720387459,-0.12090751528739929,0.0,0.0,0.0
-9.023746490478516,1.623268723487854,3.2417490482330322,0.11451593041419983,-0.03462109714746475,-0.12197278439998627,0.0,0.0,0.0
-9.023746490478516,1.5873557329177856,3.2632968425750732,0.11238539963960648,-0.03675162419676781,-0.12410331517457962,0.0,0.0,0.0
-9.028534889221191,1.5969325304031372,3.2776620388031006,0.10918960720300674,-0.03888215497136116,-0.12410331517457962,0.0,0.0,0.0
-9.009381294250488,1.625662922859192,3.268085241317749,0.11185277253389359,-0.04314321279525757,-0.12623384594917297,0.0,0.0,0.0
-8.99740982055664,1.6328455209732056,3.2585084438323975,0.11451593041419983,-0.04314321279525757,-0.12144014984369278,0.0,0.0,0.0
-9.004592895507812,1.6112977266311646,3.248931646347046,0.11717909574508667,-0.03994741663336754,-0.12250541895627975,0.0,0.0,0.0
-9.026140213012695,1.601720929145813,3.201047658920288,0.11824435740709305,-0.0324905663728714,-0.11877699196338654,0.0,0.0,0.0
-9.004592895507812,1.6089035272598267,3.248931646347046,0.11664646118879318,-0.026098979637026787,-0.12197278439998627,0.0,0.0,0.0
-8.995016098022461,1.6184803247451782,3.248931646347046,0.11664646118879318,-0.026631612330675125,-0.12303804606199265,0.0,0.0,0.0
-9.002198219299316,1.623268723487854,3.24414324760437,0.11398330330848694,-0.02822950854897499,-0.1257012039422989,0.0,0.0,0.0
-9.011775016784668,1.6208745241165161,3.2561142444610596,0.11664646118879318,-0.030360037460923195,-0.12197278439998627,0.0,0.0,0.0
-9.014169692993164,1.6089035272598267,3.2585084438323975,0.11664646118879318,-0.02876214124262333,-0.12144014984369278,0.0,0.0,0.0
-8.96389102935791,1.5921441316604614,3.265691041946411,0.12090751528739929,-0.03195793554186821,-0.1203748881816864,0.0,0.0,0.0
-8.954314231872559,1.580173134803772,3.2632968425750732,0.12197278439998627,-0.03834952041506767,-0.12410331517457962,0.0,0.0,0.0
-8.968679428100586,1.6089035272598267,3.272873640060425,0.12197278439998627,-0.04367584362626076,-0.12303804606199265,0.0,0.0,0.0
-8.980650901794434,1.6376339197158813,3.289633274078369,0.12144014984369278,-0.04367584362626076,-0.11984225362539291,0.0,0.0,0.0
-8.973467826843262,1.6065093278884888,3.2872390747070312,0.12250541895627975,-0.03888215497136116,-0.1155811995267868,0.0,0.0,0.0
-8.96149730682373,1.6065093278884888,3.294421672821045,0.12303804606199265,-0.037816889584064484,-0.11345066875219345,0.0,0.0,0.0
-8.973467826843262,1.5849615335464478,3.2872390747070312,0.1203748881816864,-0.041012682020664215,-0.11717909574508667,0.0,0.0,0.0
-8.980650901794434,1.5825673341751099,3.2848448753356934,0.11664646118879318,-0.0463390052318573,-0.11877699196338654,0.0,0.0,0.0
-8.987833023071289,1.5921441316604614,3.2848448753356934,0.11824435740709305,-0.04953479766845703,-0.12303804606199265,0.0,0.0,0.0
-9.004592895507812,1.6041151285171509,3.289633274078369,0.12303804606199265,-0.05273059383034706,-0.12250541895627975,0.0,0.0,0.0
-9.038111686706543,1.6041151285171509,3.339911460876465,0.12623384594917297,-0.05326322466135025,-0.11930961906909943,0.0,0.0,0.0
-9.026140213012695,1.6136919260025024,3.31118106842041,0.12676647305488586,-0.05432849004864693,-0.1155811995267868,0.0,0.0,0.0
-9.026140213012695,1.6112977266311646,3.3087868690490723,0.12783174216747284,-0.0511326938867569,-0.11398330330848694,0.0,0.0,0.0
-9.023746490478516,1.6112977266311646,3.315969467163086,0.1257012039422989,-0.047404270619153976,-0.11451593041419983,0.0,0.0,0.0
-9.011775016784668,1.6160861253738403,3.315969467163086,0.1257012039422989,-0.04527373984456062,-0.11291803419589996,0.0,0.0,0.0
-9.050082206726074,1.599326729774475,3.3279404640197754,0.12303804606199265,-0.0463390052318573,-0.11238539963960648,0.0,0.0,0.0
-9.05487060546875,1.6065093278884888,3.3207578659057617,0.12090751528739929,-0.048469532281160355,-0.11185277253389359,0.0,0.0,0.0
-9.01895809173584,1.6065093278884888,3.3231520652770996,0.11717909574508667,-0.047404270619153976,-0.1155811995267868,0.0,0.0,0.0
-9.02135181427002,1.6136919260025024,3.318363666534424,0.11717909574508667,-0.04367584362626076,-0.11238539963960648,0.0,0.0,0.0
-9.064447402954102,1.6208745241165161,3.3039984703063965,0.12303804606199265,-0.047404270619153976,-0.11078750342130661,0.0,0.0,0.0
-9.071630477905273,1.6041151285171509,3.296815872192383,0.12889699637889862,-0.047404270619153976,-0.10546118766069412,0.0,0.0,0.0
-9.045293807983398,1.601720929145813,3.31118106842041,0.1299622654914856,-0.052197959274053574,-0.10492855310440063,0.0,0.0,0.0
-9.069235801696777,1.625662922859192,3.3470940589904785,0.1294296383857727,-0.05060006305575371,-0.10386328399181366,0.0,0.0,0.0
-9.074024200439453,1.6328455209732056,3.337517261505127,0.12836436927318573,-0.05432849004864693,-0.10759171098470688,0.0,0.0,0.0
-9.074024200439453,1.6280571222305298,3.31118106842041,0.13209278881549835,-0.054861120879650116,-0.11238539963960648,0.0,0.0,0.0
-9.102754592895508,1.625662922859192,3.339911460876465,0.1299622654914856,-0.05805691331624985,-0.11451593041419983,0.0,0.0,0.0
-9.097966194152832,1.577778935432434,3.315969467163086,0.1299622654914856,-0.05645901709794998,-0.11078750342130661,0.0,0.0,0.0
-9.102754592895508,1.601720929145813,3.35667085647583,0.12783174216747284,-0.051665328443050385,-0.10439591854810715,0.0,0.0,0.0
-9.114726066589355,1.6136919260025024,3.3494882583618164,0.12889699637889862,-0.047404270619153976,-0.09960222989320755,0.0,0.0,0.0
-9.126696586608887,1.6112977266311646,3.3303346633911133,0.12836436927318573,-0.048469532281160355,-0.09960222989320755,0.0,0.0,0.0
-9.136273384094238,1.6089035272598267,3.359065055847168,0.12836436927318573,-0.05006743222475052,-0.10066749155521393,0.0,0.0,0.0
-9.136273384094238,1.6089035272598267,3.375824451446533,0.12729910016059875,-0.05273059383034706,-0.1017327606678009,0.0,0.0,0.0
-9.133879661560059,1.6208745241165161,3.359065055847168,0.1294296383857727,-0.05379585549235344,-0.10279802232980728,0.0,0.0,0.0
-9.124302864074707,1.6519992351531982,3.359065055847168,0.13102753460407257,-0.05379585549235344,-0.1017327606678009,0.0,0.0,0.0
-9.119514465332031,1.659181833267212,3.3734302520751953,0.13102753460407257,-0.05006743222475052,-0.10439591854810715,0.0,0.0,0.0
-9.131484985351562,1.6376339197158813,3.3949780464172363,0.12889699637889862,-0.051665328443050385,-0.10759171098470688,0.0,0.0,0.0
-9.148244857788086,1.6089035272598267,3.4093432426452637,0.1294296383857727,-0.052197959274053574,-0.10492855310440063,0.0,0.0,0.0
-9.148244857788086,1.6065093278884888,3.4093432426452637,0.1336906999349594,-0.05432849004864693,-0.1017327606678009,0.0,0.0,0.0
-9.160215377807617,1.599326729774475,3.4141316413879395,0.13795174658298492,-0.052197959274053574,-0.0974716991186142,0.0,0.0,0.0
-9.160215377807617,1.6112977266311646,3.4189200401306152,0.138484388589859,-0.052197959274053574,-0.1022653877735138,0.0,0.0,0.0
-9.155426979064941,1.6352397203445435,3.4189200401306152,0.14008228480815887,-0.0511326938867569,-0.10492855310440063,0.0,0.0,0.0
-9.174580574035645,1.6328455209732056,3.4189200401306152,0.13741911947727203,-0.05326322466135025,-0.10759171098470688,0.0,0.0,0.0
-9.136273384094238,1.6448166370391846,3.4308910369873047,0.14008228480815887,-0.05273059383034706,-0.10279802232980728,0.0,0.0,0.0
-9.17697525024414,1.6496050357818604,3.4117374420166016,0.138484388589859,-0.0511326938867569,-0.09960222989320755,0.0,0.0,0.0
-9.2033109664917,1.6448166370391846,3.4308910369873047,0.13741911947727203,-0.047936901450157166,-0.09427590668201447,0.0,0.0,0.0
-9.20091724395752,1.6352397203445435,3.4572272300720215,0.1342233270406723,-0.047936901450157166,-0.09853696823120117,0.0,0.0,0.0
-9.193734169006348,1.6328455209732056,3.4308910369873047,0.138484388589859,-0.048469532281160355,-0.09960222989320755,0.0,0.0,0.0
-9.196128845214844,1.625662922859192,3.4141316413879395,0.1443433314561844,-0.05326322466135025,-0.10546118766069412,0.0,0.0,0.0
-9.205705642700195,1.6400281190872192,3.4141316413879395,0.14594122767448425,-0.05592638626694679,-0.10546118766069412,0.0,0.0,0.0
-9.196128845214844,1.6424224376678467,3.4404678344726562,0.1438107043504715,-0.05805691331624985,-0.10279802232980728,0.0,0.0,0.0
-9.188945770263672,1.6424224376678467,3.4620156288146973,0.1432780772447586,-0.054861120879650116,-0.09853696823120117,0.0,0.0,0.0
-9.2033109664917,1.6400281190872192,3.4572272300720215,0.14594122767448425,-0.04900216683745384,-0.0974716991186142,0.0,0.0,0.0
-9.21288776397705,1.6328455209732056,3.44765043258667,0.1443433314561844,-0.047936901450157166,-0.09960222989320755,0.0,0.0,0.0
-9.23443603515625,1.6400281190872192,3.4356794357299805,0.14061491191387177,-0.0463390052318573,-0.10066749155521393,0.0,0.0,0.0
-9.23682975769043,1.6328455209732056,3.442862033843994,0.1390170156955719,-0.0463390052318573,-0.0974716991186142,0.0,0.0,0.0
-9.224859237670898,1.6280571222305298,3.4548330307006836,0.1395496428012848,-0.0463390052318573,-0.09853696823120117,0.0,0.0,0.0
-9.215282440185547,1.6280571222305298,3.464409828186035,0.14221280813217163,-0.04580637440085411,-0.10120012611150742,0.0,0.0,0.0
-9.23443603515625,1.6112977266311646,3.490746021270752,0.14114753901958466,-0.040480051189661026,-0.10492855310440063,0.0,0.0,0.0
-9.23443603515625,1.6304513216018677,3.485957622528076,0.14114753901958466,-0.0324905663728714,-0.10333065688610077,0.0,0.0,0.0
-9.220070838928223,1.656787633895874,3.4739866256713867,0.1438107043504715,-0.029294773936271667,-0.09906959533691406,0.0,0.0,0.0
-9.232041358947754,1.6543934345245361,3.4572272300720215,0.1486043930053711,-0.03302319720387459,-0.0974716991186142,0.0,0.0,0.0
-9.248801231384277,1.623268723487854,3.4380736351013184,0.14647386968135834,-0.03515372797846794,-0.09534116834402084,0.0,0.0,0.0
-9.220070838928223,1.5969325304031372,3.4308910369873047,0.1438107043504715,-0.033555831760168076,-0.09587380290031433,0.0,0.0,0.0
-9.215282440185547,1.5945383310317993,3.44765043258667,0.1443433314561844,-0.029827404767274857,-0.09693906456232071,0.0,0.0,0.0
-9.229647636413574,1.625662922859192,3.4380736351013184,0.14647386968135834,-0.030360037460923195,-0.09960222989320755,0.0,0.0,0.0
-9.222464561462402,1.6352397203445435,3.445256233215332,0.1480717658996582,-0.02876214124262333,-0.09906959533691406,0.0,0.0,0.0
-9.215282440185547,1.623268723487854,3.4524388313293457,0.14540860056877136,-0.029294773936271667,-0.09374327212572098,0.0,0.0,0.0
-9.227252960205078,1.6160861253738403,3.450044631958008,0.1443433314561844,-0.026098979637026787,-0.09534116834402084,0.0,0.0,0.0
-9.222464561462402,1.6041151285171509,3.450044631958008,0.1438107043504715,-0.022903187200427055,-0.09427590668201447,0.0,0.0,0.0
-9.205705642700195,1.6089035272598267,3.4332852363586426,0.14753912389278412,-0.020240025594830513,-0.09960222989320755,0.0,0.0,0.0
-9.208099365234375,1.5921441316604614,3.423708438873291,0.14966966211795807,-0.02077265828847885,-0.09693906456232071,0.0,0.0,0.0
-9.20091724395752,1.5825673341751099,3.4404678344726562,0.1528654545545578,-0.02503371611237526,-0.09853696823120117,0.0,0.0,0.0
-9.17936897277832,1.599326729774475,3.4739866256713867,0.1480717658996582,-0.026631612330675125,-0.10013486444950104,0.0,0.0,0.0
-9.186552047729492,1.599326729774475,3.4811692237854004,0.14913703501224518,-0.026631612330675125,-0.1022653877735138,0.0,0.0,0.0
-9.215282440185547,1.5753847360610962,3.4548330307006836,0.14700649678707123,-0.02450108341872692,-0.10386328399181366,0.0,0.0,0.0
-9.20091724395752,1.577778935432434,3.445256233215332,0.1480717658996582,-0.02130528911948204,-0.10333065688610077,0.0,0.0,0.0
-9.184157371520996,1.601720929145813,3.450044631958008,0.14966966211795807,-0.02130528911948204,-0.09960222989320755,0.0,0.0,0.0
-9.188945770263672,1.6136919260025024,3.4572272300720215,0.15606124699115753,-0.02130528911948204,-0.09800433367490768,0.0,0.0,0.0
-9.222464561462402,1.5849615335464478,3.4620156288146973,0.15872441232204437,-0.023968450725078583,-0.0974716991186142,0.0,0.0,0.0
-9.227252960205078,1.5538369417190552,3.4380736351013184,0.15659387409687042,-0.02130528911948204,-0.1022653877735138,0.0,0.0,0.0
-9.21288776397705,1.5634137392044067,3.442862033843994,0.15020228922367096,-0.02077265828847885,-0.10759171098470688,0.0,0.0,0.0
-9.215282440185547,1.5825673341751099,3.4596214294433594,0.14913703501224518,-0.02077265828847885,-0.11238539963960648,0.0,0.0,0.0
-9.215282440185547,1.5729905366897583,3.464409828186035,0.15073493123054504,-0.022370554506778717,-0.1113201379776001,0.0,0.0,0.0
-9.181763648986816,1.5275007486343384,3.4548330307006836,0.14966966211795807,-0.02183792181313038,-0.10865698009729385,0.0,0.0,0.0
-9.220070838928223,1.5634137392044067,3.471592426300049,0.1523328274488449,-0.016511598601937294,-0.10546118766069412,0.0,0.0,0.0
-9.208099365234375,1.5682021379470825,3.423708438873291,0.1533980816602707,-0.009587380103766918,-0.10546118766069412,0.0,0.0,0.0
-9.196128845214844,1.5466543436050415,3.4332852363586426,0.15552861988544464,-0.004261057823896408,-0.10599381476640701,0.0,0.0,0.0
-9.2033109664917,1.5203181505203247,3.4548330307006836,0.1523328274488449,-0.005858954507857561,-0.10599381476640701,0.0,0.0,0.0
-9.232041358947754,1.50355863571167,3.4404678344726562,0.15180018544197083,-0.009587380103766918,-0.10439591854810715,0.0,0.0,0.0
-9.232041358947754,1.534683346748352,3.4141316413879395,0.15126755833625793,-0.009054748341441154,-0.10439591854810715,0.0,0.0,0.0
-9.205705642700195,1.4963760375976562,3.4117374420166016,0.1480717658996582,-0.006391586735844612,-0.10492855310440063,0.0,0.0,0.0
-9.23682975769043,1.5107412338256836,3.4117374420166016,0.14540860056877136,-0.002663161139935255,-0.10599381476640701,0.0,0.0,0.0
-9.253589630126953,1.5298949480056763,3.4165258407592773,0.14487597346305847,-0.002663161139935255,-0.10386328399181366,0.0,0.0,0.0
-9.23443603515625,1.5298949480056763,3.4308910369873047,0.1486043930053711,-0.004261057823896408,-0.10279802232980728,0.0,0.0,0.0
-9.224859237670898,1.5107412338256836,3.450044631958008,0.15126755833625793,-0.007456851191818714,-0.10386328399181366,0.0,0.0,0.0
-9.217676162719727,1.5083470344543457,3.442862033843994,0.15393072366714478,-0.006391586735844612,-0.10759171098470688,0.0,0.0,0.0
-9.241618156433105,1.5083470344543457,3.4356794357299805,0.14966966211795807,-0.002663161139935255,-0.1113201379776001,0.0,0.0,0.0
-9.258378028869629,1.50355863571167,3.4356794357299805,0.14913703501224518,0.002130528911948204,-0.10705908387899399,0.0,0.0,0.0
-9.248801231384277,1.4939818382263184,3.428496837615967,0.15073493123054504,0.006391586735844612,-0.1022653877735138,0.0,0.0,0.0
-9.208099365234375,1.4963760375976562,3.3854012489318848,0.15606124699115753,0.005858954507857561,-0.1022653877735138,0.0,0.0,0.0
-9.253589630126953,1.5131354331970215,3.4165258407592773,0.15020228922367096,0.006924218963831663,-0.10492855310440063,0.0,0.0,0.0
-9.244012832641602,1.4844050407409668,3.4165258407592773,0.14274543523788452,0.00532632227987051,-0.11078750342130661,0.0,0.0,0.0
-9.2655611038208,1.4652514457702637,3.428496837615967,0.13688649237155914,0.010120012797415257,-0.10918960720300674,0.0,0.0,0.0
-9.28950309753418,1.4628572463989258,3.426102638244629,0.138484388589859,0.013848437927663326,-0.11025487631559372,0.0,0.0,0.0
-9.26795482635498,1.4700398445129395,3.3854012489318848,0.14114753901958466,0.016511598601937294,-0.10492855310440063,0.0,0.0,0.0
-9.248801231384277,1.4867992401123047,3.406949043273926,0.14487597346305847,0.014381070621311665,-0.10705908387899399,0.0,0.0,0.0
-9.244012832641602,1.4987702369689941,3.442862033843994,0.1480717658996582,0.015446335077285767,-0.10759171098470688,0.0,0.0,0.0
-9.232041358947754,1.4867992401123047,3.4380736351013184,0.14647386968135834,0.017044231295585632,-0.11185277253389359,0.0,0.0,0.0
-9.224859237670898,1.482010841369629,3.4141316413879395,0.14221280813217163,0.020240025594830513,-0.10918960720300674,0.0,0.0,0.0
-9.227252960205078,1.501164436340332,3.383007049560547,0.14008228480815887,0.020240025594830513,-0.10546118766069412,0.0,0.0,0.0
-9.222464561462402,1.4963760375976562,3.3710360527038574,0.14008228480815887,0.019174760207533836,-0.10439591854810715,0.0,0.0,0.0
-9.21288776397705,1.479616641998291,3.361459255218506,0.1432780772447586,0.018642129376530647,-0.10546118766069412,0.0,0.0,0.0
-9.198522567749023,1.50355863571167,3.3877954483032227,0.14274543523788452,0.01757686398923397,-0.10972224175930023,0.0,0.0,0.0
-9.17936897277832,1.5083470344543457,3.4117374420166016,0.14540860056877136,0.018642129376530647,-0.10972224175930023,0.0,0.0,0.0
-9.162610054016113,1.479616641998291,3.4141316413879395,0.14487597346305847,0.019707392901182175,-0.10812434554100037,0.0,0.0,0.0
-9.138668060302734,1.4676456451416016,3.4117374420166016,0.14487597346305847,0.020240025594830513,-0.10865698009729385,0.0,0.0,0.0
-9.129091262817383,1.5203181505203247,3.423708438873291,0.14274543523788452,0.022903187200427055,-0.10972224175930023,0.0,0.0,0.0
-9.126696586608887,1.5203181505203247,3.4093432426452637,0.14274543523788452,0.023968450725078583,-0.11025487631559372,0.0,0.0,0.0
-9.129091262817383,1.4700398445129395,3.4093432426452637,0.14168018102645874,0.022903187200427055,-0.11078750342130661,0.0,0.0,0.0
-9.141061782836914,1.4197616577148438,3.4141316413879395,0.1432780772447586,0.02077265828847885,-0.10918960720300674,0.0,0.0,0.0
-9.165003776550293,1.434126853942871,3.3854012489318848,0.14647386968135834,0.019707392901182175,-0.11078750342130661,0.0,0.0,0.0
-9.131484985351562,1.455674648284912,3.399766445159912,0.1486043930053711,0.022370554506778717,-0.11025487631559372,0.0,0.0,0.0
-9.129091262817383,1.4508862495422363,3.3877954483032227,0.14700649678707123,0.020240025594830513,-0.11025487631559372,0.0,0.0,0.0
-9.141061782836914,1.4389152526855469,3.378218650817871,0.1438107043504715,0.018642129376530647,-0.10865698009729385,0.0,0.0,0.0
-9.167398452758789,1.4221558570861816,3.361459255218506,0.14221280813217163,0.019174760207533836,-0.11185277253389359,0.0,0.0,0.0
-9.205705642700195,1.4101848602294922,3.3423056602478027,0.14008228480815887,0.022903187200427055,-0.11398330330848694,0.0,0.0,0.0
-9.241618156433105,1.4173674583435059,3.337517261505127,0.13795174658298492,0.029294773936271667,-0.11771172285079956,0.0,0.0,0.0
-9.23682975769043,1.4293384552001953,3.332728862762451,0.138484388589859,0.033555831760168076,-0.11451593041419983,0.0,0.0,0.0
-9.253589630126953,1.436521053314209,3.3063926696777344,0.13795174658298492,0.03515372797846794,-0.11451593041419983,0.0,0.0,0.0
-9.275137901306152,1.4269442558288574,3.3087868690490723,0.13741911947727203,0.0324905663728714,-0.1155811995267868,0.0,0.0,0.0
-9.28950309753418,1.4197616577148438,3.354276657104492,0.1347559541463852,0.03142530098557472,-0.11824435740709305,0.0,0.0,0.0
-9.315838813781738,1.4532804489135742,3.354276657104492,0.1336906999349594,0.03302319720387459,-0.12090751528739929,0.0,0.0,0.0
-9.299079895019531,1.4460978507995605,3.335123062133789,0.13315805792808533,0.03675162419676781,-0.1161138266324997,0.0,0.0,0.0
-9.315838813781738,1.4460978507995605,3.3470940589904785,0.13315805792808533,0.03834952041506767,-0.10865698009729385,0.0,0.0,0.0
-9.344569206237793,1.45806884765625,3.3662476539611816,0.13582122325897217,0.03621899336576462,-0.10386328399181366,0.0,0.0,0.0
-9.354146003723145,1.4652514457702637,3.375824451446533,0.14008228480815887,0.03515372797846794,-0.10759171098470688,0.0,0.0,0.0
-9.32541561126709,1.4437036514282227,3.3710360527038574,0.14114753901958466,0.03994741663336754,-0.11185277253389359,0.0,0.0,0.0
-9.296685218811035,1.434126853942871,3.423708438873291,0.13635385036468506,0.04527373984456062,-0.1155811995267868,0.0,0.0,0.0
-9.284714698791504,1.4508862495422363,3.421314239501953,0.13315805792808533,0.048469532281160355,-0.11451593041419983,0.0,0.0,0.0
-9.272743225097656,1.4413094520568848,3.4165258407592773,0.13156016170978546,0.04367584362626076,-0.1155811995267868,0.0,0.0,0.0
-9.253589630126953,1.4293384552001953,3.406949043273926,0.13102753460407257,0.04420847445726395,-0.11504856497049332,0.0,0.0,0.0
-9.229647636413574,1.4413094520568848,3.3854012489318848,0.1299622654914856,0.04420847445726395,-0.11398330330848694,0.0,0.0,0.0
-9.229647636413574,1.434126853942871,3.3877954483032227,0.12836436927318573,0.04527373984456062,-0.11291803419589996,0.0,0.0,0.0
-9.222464561462402,1.4269442558288574,3.375824451446533,0.13635385036468506,0.04261057823896408,-0.11398330330848694,0.0,0.0,0.0
-9.217676162719727,1.460463047027588,3.3710360527038574,0.13635385036468506,0.041012682020664215,-0.11345066875219345,0.0,0.0,0.0
-9.21288776397705,1.4724340438842773,3.3686418533325195,0.13741911947727203,0.041012682020664215,-0.11451593041419983,0.0,0.0,0.0
-9.215282440185547,1.4245500564575195,3.3686418533325195,0.13262543082237244,0.04207794740796089,-0.1113201379776001,0.0,0.0,0.0
-9.215282440185547,1.4460978507995605,3.397372245788574,0.13262543082237244,0.04527373984456062,-0.11398330330848694,0.0,0.0,0.0
-9.222464561462402,1.4508862495422363,3.35667085647583,0.13262543082237244,0.047936901450157166,-0.11238539963960648,0.0,0.0,0.0
-9.232041358947754,1.436521053314209,3.335123062133789,0.13262543082237244,0.047936901450157166,-0.1161138266324997,0.0,0.0,0.0
-9.23682975769043,1.4173674583435059,3.359065055847168,0.1294296383857727,0.04261057823896408,-0.11238539963960648,0.0,0.0,0.0
-9.23682975769043,1.4077906608581543,3.40216064453125,0.12836436927318573,0.040480051189661026,-0.11238539963960648,0.0,0.0,0.0
-9.246407508850098,1.4293384552001953,3.3854012489318848,0.12783174216747284,0.041012682020664215,-0.1113201379776001,0.0,0.0,0.0
-9.263166427612305,1.4437036514282227,3.35667085647583,0.12729910016059875,0.04207794740796089,-0.11504856497049332,0.0,0.0,0.0
-9.294291496276855,1.4484920501708984,3.3686418533325195,0.12357068061828613,0.04207794740796089,-0.11824435740709305,0.0,0.0,0.0
-9.308656692504883,1.4628572463989258,3.3949780464172363,0.11824435740709305,0.04367584362626076,-0.12144014984369278,0.0,0.0,0.0
-9.311050415039062,1.4676456451416016,3.399766445159912,0.11717909574508667,0.047936901450157166,-0.12197278439998627,0.0,0.0,0.0
-9.32302188873291,1.4293384552001953,3.3638534545898438,0.11717909574508667,0.05006743222475052,-0.1203748881816864,0.0,0.0,0.0
-9.282320022583008,1.4293384552001953,3.3662476539611816,0.11930961906909943,0.05273059383034706,-0.11185277253389359,0.0,0.0,0.0
-9.246407508850098,1.4460978507995605,3.3710360527038574,0.11930961906909943,0.05432849004864693,-0.10918960720300674,0.0,0.0,0.0
-9.248801231384277,1.4676456451416016,3.3662476539611816,0.11930961906909943,0.05805691331624985,-0.10599381476640701,0.0,0.0,0.0
-9.246407508850098,1.4724340438842773,3.3686418533325195,0.11717909574508667,0.05699165165424347,-0.1161138266324997,0.0,0.0,0.0
-9.20091724395752,1.4460978507995605,3.397372245788574,0.11451593041419983,0.05326322466135025,-0.11930961906909943,0.0,0.0,0.0
-9.20091724395752,1.41257905960083,3.4308910369873047,0.1155811995267868,0.051665328443050385,-0.12303804606199265,0.0,0.0,0.0
-9.153033256530762,1.3958195447921753,3.3949780464172363,0.11664646118879318,0.054861120879650116,-0.11984225362539291,0.0,0.0,0.0
-9.160215377807617,1.3934253454208374,3.359065055847168,0.12144014984369278,0.05805691331624985,-0.11345066875219345,0.0,0.0,0.0
-9.174580574035645,1.3958195447921753,3.3470940589904785,0.12303804606199265,0.05592638626694679,-0.11345066875219345,0.0,0.0,0.0
-9.165003776550293,1.3910311460494995,3.3638534545898438,0.12463594228029251,0.05273059383034706,-0.11238539963960648,0.0,0.0,0.0
-9.174580574035645,1.3742717504501343,3.3686418533325195,0.12303804606199265,0.0511326938867569,-0.11345066875219345,0.0,0.0,0.0
-9.181763648986816,1.3623007535934448,3.354276657104492,0.12090751528739929,0.05006743222475052,-0.11291803419589996,0.0,0.0,0.0
-9.17697525024414,1.3934253454208374,3.335123062133789,0.1161138266324997,0.048469532281160355,-0.11451593041419983,0.0,0.0,0.0
-9.188945770263672,1.4053964614868164,3.3087868690490723,0.11291803419589996,0.0463390052318573,-0.11717909574508667,0.0,0.0,0.0
-9.198522567749023,1.3958195447921753,3.3016042709350586,0.11025487631559372,0.048469532281160355,-0.11451593041419983,0.0,0.0,0.0
-9.14345645904541,1.4221558570861816,3.3494882583618164,0.11345066875219345,0.05273059383034706,-0.11185277253389359,0.0,0.0,0.0
-9.174580574035645,1.4413094520568848,3.315969467163086,0.11238539963960648,0.05432849004864693,-0.10812434554100037,0.0,0.0,0.0
-9.193734169006348,1.4221558570861816,3.3231520652770996,0.11185277253389359,0.05752428248524666,-0.10918960720300674,0.0,0.0,0.0
-9.191340446472168,1.4077906608581543,3.335123062133789,0.10546118766069412,0.05592638626694679,-0.11078750342130661,0.0,0.0,0.0
-9.17936897277832,1.4173674583435059,3.3279404640197754,0.10333065688610077,0.059122178703546524,-0.11185277253389359,0.0,0.0,0.0
-9.181763648986816,1.4389152526855469,3.3039984703063965,0.10279802232980728,0.05645901709794998,-0.11345066875219345,0.0,0.0,0.0
-9.121908187866211,1.4197616577148438,3.3039984703063965,0.10759171098470688,0.055393751710653305,-0.11185277253389359,0.0,0.0,0.0
-9.138668060302734,1.4077906608581543,3.296815872192383,0.11078750342130661,0.055393751710653305,-0.11345066875219345,0.0,0.0,0.0
-9.157821655273438,1.3982137441635132,3.296815872192383,0.11078750342130661,0.059122178703546524,-0.10865698009729385,0.0,0.0,0.0
-9.165003776550293,1.3886369466781616,3.3087868690490723,0.10972224175930023,0.06444849818944931,-0.11025487631559372,0.0,0.0,0.0
-9.165003776550293,1.37906014919281,3.3255462646484375,0.10812434554100037,0.06338323652744293,-0.10812434554100037,0.0,0.0,0.0
-9.157821655273438,1.3910311460494995,3.3279404640197754,0.10705908387899399,0.06285060197114944,-0.11025487631559372,0.0,0.0,0.0
-9.124302864074707,1.3982137441635132,3.3016042709350586,0.10492855310440063,0.061785340309143066,-0.11025487631559372,0.0,0.0,0.0
-9.131484985351562,1.3694833517074585,3.3087868690490723,0.10333065688610077,0.06551376730203629,-0.11078750342130661,0.0,0.0,0.0
-9.153033256530762,1.359906554222107,3.3231520652770996,0.09960222989320755,0.06551376730203629,-0.1113201379776001,0.0,0.0,0.0
-9.162610054016113,1.3766659498214722,3.3255462646484375,0.10066749155521393,0.06444849818944931,-0.10759171098470688,0.0,0.0,0.0
-9.155426979064941,1.359906554222107,3.3207578659057617,0.1022653877735138,0.05965480953454971,-0.10599381476640701,0.0,0.0,0.0
-9.133879661560059,1.3311761617660522,3.3039984703063965,0.10705908387899399,0.055393751710653305,-0.10492855310440063,0.0,0.0,0.0
-9.155426979064941,1.316810965538025,3.3279404640197754,0.10546118766069412,0.05326322466135025,-0.10812434554100037,0.0,0.0,0.0
-9.172186851501465,1.316810965538025,3.332728862762451,0.1017327606678009,0.05326322466135025,-0.11025487631559372,0.0,0.0,0.0
-9.174580574035645,1.314416766166687,3.3087868690490723,0.10066749155521393,0.052197959274053574,-0.10812434554100037,0.0,0.0,0.0
-9.167398452758789,1.2832921743392944,3.292027473449707,0.10120012611150742,0.052197959274053574,-0.10492855310440063,0.0,0.0,0.0
-9.193734169006348,1.3000515699386597,3.292027473449707,0.10279802232980728,0.054861120879650116,-0.10546118766069412,0.0,0.0,0.0
-9.17936897277832,1.3096283674240112,3.265691041946411,0.1022653877735138,0.054861120879650116,-0.1065264493227005,0.0,0.0,0.0
-9.169792175292969,1.314416766166687,3.265691041946411,0.10013486444950104,0.05273059383034706,-0.10759171098470688,0.0,0.0,0.0
-9.17936897277832,1.3000515699386597,3.2872390747070312,0.0974716991186142,0.05379585549235344,-0.10705908387899399,0.0,0.0,0.0
-9.193734169006348,1.2617442607879639,3.3039984703063965,0.09214537590742111,0.06285060197114944,-0.10812434554100037,0.0,0.0,0.0
-9.184157371520996,1.2449848651885986,3.3016042709350586,0.09321064502000809,0.0692421942949295,-0.10972224175930023,0.0,0.0,0.0
-9.184157371520996,1.290474772453308,3.2872390747070312,0.09321064502000809,0.06870955973863602,-0.10918960720300674,0.0,0.0,0.0
-9.167398452758789,1.3239935636520386,3.2848448753356934,0.09534116834402084,0.061785340309143066,-0.10865698009729385,0.0,0.0,0.0
-9.153033256530762,1.3311761617660522,3.2872390747070312,0.09587380290031433,0.06125270947813988,-0.10918960720300674,0.0,0.0,0.0
-9.165003776550293,1.316810965538025,3.2872390747070312,0.0926780104637146,0.06072007492184639,-0.10759171098470688,0.0,0.0,0.0
-9.198522567749023,1.3024457693099976,3.3016042709350586,0.08948221802711487,0.0649811327457428,-0.10546118766069412,0.0,0.0,0.0
-9.193734169006348,1.3072341680526733,3.2800562381744385,0.0836232602596283,0.0649811327457428,-0.10759171098470688,0.0,0.0,0.0
-9.198522567749023,1.3120225667953491,3.2609026432037354,0.07936220616102219,0.06604639440774918,-0.10865698009729385,0.0,0.0,0.0
-9.2033109664917,1.316810965538025,3.2585084438323975,0.07669904083013535,0.062317971140146255,-0.10865698009729385,0.0,0.0,0.0
-9.196128845214844,1.3287819623947144,3.270479440689087,0.07723167538642883,0.06285060197114944,-0.10705908387899399,0.0,0.0,0.0
-9.184157371520996,1.3503297567367554,3.2632968425750732,0.08255799859762192,0.06072007492184639,-0.10865698009729385,0.0,0.0,0.0
-9.186552047729492,1.3215993642807007,3.270479440689087,0.08415589481592178,0.06125270947813988,-0.10812434554100037,0.0,0.0,0.0
-9.165003776550293,1.3287819623947144,3.2872390747070312,0.08202536404132843,0.06125270947813988,-0.10333065688610077,0.0,0.0,0.0
-9.150638580322266,1.338358759880066,3.294421672821045,0.08042746782302856,0.06338323652744293,-0.10120012611150742,0.0,0.0,0.0
-9.153033256530762,1.3335703611373901,3.289633274078369,0.07936220616102219,0.06551376730203629,-0.10066749155521393,0.0,0.0,0.0
-9.167398452758789,1.3120225667953491,3.2992100715637207,0.07989483326673508,0.062317971140146255,-0.10492855310440063,0.0,0.0,0.0
-9.155426979064941,1.3048399686813354,3.2992100715637207,0.07669904083013535,0.0601874440908432,-0.10333065688610077,0.0,0.0,0.0
-9.167398452758789,1.3072341680526733,3.294421672821045,0.07616641372442245,0.05965480953454971,-0.1065264493227005,0.0,0.0,0.0
-9.169792175292969,1.3263877630233765,3.2776620388031006,0.07297061383724213,0.062317971140146255,-0.10439591854810715,0.0,0.0,0.0
-9.153033256530762,1.3287819623947144,3.2585084438323975,0.07137271761894226,0.06657902896404266,-0.10386328399181366,0.0,0.0,0.0
-9.121908187866211,1.2952631711959839,3.2417490482330322,0.07137271761894226,0.06657902896404266,-0.1022653877735138,0.0,0.0,0.0
-9.162610054016113,1.2976573705673218,3.2561142444610596,0.07456851750612259,0.06285060197114944,-0.10333065688610077,0.0,0.0,0.0
-9.150638580322266,1.2808979749679565,3.2632968425750732,0.07297061383724213,0.055393751710653305,-0.10492855310440063,0.0,0.0,0.0
-9.117119789123535,1.2856863737106323,3.2800562381744385,0.06870955973863602,0.05060006305575371,-0.10546118766069412,0.0,0.0,0.0
-9.114726066589355,1.2856863737106323,3.289633274078369,0.06764429807662964,0.0511326938867569,-0.10333065688610077,0.0,0.0,0.0
-9.14585018157959,1.2665326595306396,3.2848448753356934,0.06764429807662964,0.05752428248524666,-0.09640643745660782,0.0,0.0,0.0
-9.10993766784668,1.2952631711959839,3.272873640060425,0.06604639440774918,0.06604639440774918,-0.0926780104637146,0.0,0.0,0.0
-9.119514465332031,1.3120225667953491,3.246537446975708,0.06285060197114944,0.0697748214006424,-0.09001485258340836,0.0,0.0,0.0
-9.10993766784668,1.2976573705673218,3.2417490482330322,0.062317971140146255,0.06391587108373642,-0.09640643745660782,0.0,0.0,0.0
-9.114726066589355,1.2737152576446533,3.248931646347046,0.06391587108373642,0.05699165165424347,-0.09906959533691406,0.0,0.0,0.0
-9.133879661560059,1.2617442607879639,3.2537200450897217,0.06604639440774918,0.0511326938867569,-0.10066749155521393,0.0,0.0,0.0
-9.10993766784668,1.2856863737106323,3.2632968425750732,0.06604639440774918,0.051665328443050385,-0.09427590668201447,0.0,0.0,0.0
-9.10993766784668,1.2641384601593018,3.2632968425750732,0.06391587108373642,0.05432849004864693,-0.08948221802711487,0.0,0.0,0.0
-9.095572471618652,1.256955862045288,3.251325845718384,0.06125270947813988,0.059122178703546524,-0.09001485258340836,0.0,0.0,0.0
-9.093177795410156,1.259350061416626,3.24414324760437,0.059122178703546524,0.06125270947813988,-0.09587380290031433,0.0,0.0,0.0
-9.093177795410156,1.2665326595306396,3.2369606494903564,0.061785340309143066,0.0601874440908432,-0.09906959533691406,0.0,0.0,0.0
-9.081207275390625,1.2689268589019775,3.222595453262329,0.061785340309143066,0.05805691331624985,-0.09693906456232071,0.0,0.0,0.0
-9.095572471618652,1.256955862045288,3.227383852005005,0.06125270947813988,0.05805691331624985,-0.09534116834402084,0.0,0.0,0.0
-9.11233139038086,1.292868971824646,3.2537200450897217,0.05752428248524666,0.05699165165424347,-0.09427590668201447,0.0,0.0,0.0
-9.105149269104004,1.3024457693099976,3.251325845718384,0.05805691331624985,0.05592638626694679,-0.0926780104637146,0.0,0.0,0.0
-9.08838939666748,1.290474772453308,3.24414324760437,0.05752428248524666,0.05379585549235344,-0.08894958347082138,0.0,0.0,0.0
-9.07641887664795,1.2856863737106323,3.2585084438323975,0.05592638626694679,0.05379585549235344,-0.087884321808815,0.0,0.0,0.0
-9.07641887664795,1.2856863737106323,3.246537446975708,0.05326322466135025,0.058589547872543335,-0.09108011424541473,0.0,0.0,0.0
-9.093177795410156,1.2761094570159912,3.2178070545196533,0.054861120879650116,0.062317971140146255,-0.09108011424541473,0.0,0.0,0.0
-9.105149269104004,1.2737152576446533,3.2321722507476807,0.05379585549235344,0.06125270947813988,-0.087884321808815,0.0,0.0,0.0
-9.107542991638184,1.2832921743392944,3.2417490482330322,0.05060006305575371,0.05432849004864693,-0.08096010237932205,0.0,0.0,0.0
-9.107542991638184,1.292868971824646,3.222595453262329,0.047404270619153976,0.04900216683745384,-0.08096010237932205,0.0,0.0,0.0
-9.119514465332031,1.2761094570159912,3.2393548488616943,0.0463390052318573,0.05006743222475052,-0.08522115647792816,0.0,0.0,0.0
-9.105149269104004,1.2856863737106323,3.2297780513763428,0.04527373984456062,0.0511326938867569,-0.09054747968912125,0.0,0.0,0.0
-9.10993766784668,1.2761094570159912,3.2369606494903564,0.04420847445726395,0.05326322466135025,-0.09214537590742111,0.0,0.0,0.0
-9.117119789123535,1.2545616626739502,3.224989652633667,0.047936901450157166,0.05006743222475052,-0.08681905269622803,0.0,0.0,0.0
-9.114726066589355,1.2449848651885986,3.181894063949585,0.051665328443050385,0.052197959274053574,-0.08096010237932205,0.0,0.0,0.0
-9.100360870361328,1.2737152576446533,3.141192674636841,0.05006743222475052,0.05273059383034706,-0.07723167538642883,0.0,0.0,0.0
-9.074024200439453,1.2808979749679565,3.184288263320923,0.04687163606286049,0.05645901709794998,-0.07510114461183548,0.0,0.0,0.0
-9.081207275390625,1.2832921743392944,3.201047658920288,0.04314321279525757,0.055393751710653305,-0.07456851750612259,0.0,0.0,0.0
-9.093177795410156,1.2761094570159912,3.224989652633667,0.0415453165769577,0.0511326938867569,-0.07563377916812897,0.0,0.0,0.0
-9.102754592895508,1.2497732639312744,3.2321722507476807,0.03941478580236435,0.0463390052318573,-0.08096010237932205,0.0,0.0,0.0
-9.10993766784668,1.2210428714752197,3.1914708614349365,0.03994741663336754,0.04420847445726395,-0.08468852937221527,0.0,0.0,0.0
-9.107542991638184,1.2689268589019775,3.1914708614349365,0.04261057823896408,0.047404270619153976,-0.08415589481592178,0.0,0.0,0.0
-9.093177795410156,1.2761094570159912,3.1675288677215576,0.047404270619153976,0.04900216683745384,-0.0830906331539154,0.0,0.0,0.0
-9.100360870361328,1.2761094570159912,3.1723172664642334,0.04580637440085411,0.04953479766845703,-0.07989483326673508,0.0,0.0,0.0
-9.10993766784668,1.2785037755966187,3.205836057662964,0.0463390052318573,0.047936901450157166,-0.07616641372442245,0.0,0.0,0.0
-9.105149269104004,1.2880805730819702,3.2321722507476807,0.0415453165769577,0.05006743222475052,-0.06711166352033615,0.0,0.0,0.0
-9.10993766784668,1.3192051649093628,3.1747114658355713,0.03888215497136116,0.05326322466135025,-0.06338323652744293,0.0,0.0,0.0
-9.117119789123535,1.3120225667953491,3.1866824626922607,0.03568635880947113,0.05379585549235344,-0.06072007492184639,0.0,0.0,0.0
-9.119514465332031,1.2976573705673218,3.184288263320923,0.03195793554186821,0.051665328443050385,-0.06657902896404266,0.0,0.0,0.0
-9.126696586608887,1.3048399686813354,3.201047658920288,0.03142530098557472,0.04900216683745384,-0.0692421942949295,0.0,0.0,0.0
-9.131484985351562,1.3311761617660522,3.227383852005005,0.030360037460923195,0.04900216683745384,-0.07616641372442245,0.0,0.0,0.0
-9.131484985351562,1.357512354850769,3.1962592601776123,0.03142530098557472,0.048469532281160355,-0.0740358829498291,0.0,0.0,0.0
-9.11233139038086,1.3287819623947144,3.134010076522827,0.0324905663728714,0.048469532281160355,-0.07030745595693588,0.0,0.0,0.0
-9.100360870361328,1.3311761617660522,3.162740468978882,0.037284258753061295,0.04900216683745384,-0.06657902896404266,0.0,0.0,0.0
-9.095572471618652,1.3239935636520386,3.201047658920288,0.037816889584064484,0.047404270619153976,-0.0649811327457428,0.0,0.0,0.0
-9.08838939666748,1.3215993642807007,3.2082302570343018,0.037816889584064484,0.04687163606286049,-0.06551376730203629,0.0,0.0,0.0
-9.064447402954102,1.3551181554794312,3.1866824626922607,0.03462109714746475,0.04314321279525757,-0.06711166352033615,0.0,0.0,0.0
-9.071630477905273,1.359906554222107,3.224989652633667,0.03515372797846794,0.04314321279525757,-0.07084009051322937,0.0,0.0,0.0
-9.074024200439453,1.3215993642807007,3.2154128551483154,0.03515372797846794,0.04207794740796089,-0.07137271761894226,0.0,0.0,0.0
-9.062053680419922,1.3287819623947144,3.205836057662964,0.03675162419676781,0.04687163606286049,-0.0649811327457428,0.0,0.0,0.0
-9.05487060546875,1.338358759880066,3.201047658920288,0.037816889584064484,0.047936901450157166,-0.062317971140146255,0.0,0.0,0.0
-9.069235801696777,1.3024457693099976,3.1866824626922607,0.03675162419676781,0.05006743222475052,-0.05965480953454971,0.0,0.0,0.0
-9.07641887664795,1.316810965538025,3.1747114658355713,0.030892670154571533,0.04687163606286049,-0.06285060197114944,0.0,0.0,0.0
-9.05487060546875,1.3479355573654175,3.1914708614349365,0.023435818031430244,0.0463390052318573,-0.06551376730203629,0.0,0.0,0.0
-9.062053680419922,1.3479355573654175,3.1938650608062744,0.022903187200427055,0.04314321279525757,-0.06285060197114944,0.0,0.0,0.0
-9.059659004211426,1.3455413579940796,3.1938650608062744,0.02822950854897499,0.03941478580236435,-0.062317971140146255,0.0,0.0,0.0
-9.028534889221191,1.3551181554794312,3.1938650608062744,0.037284258753061295,0.03675162419676781,-0.06072007492184639,0.0,0.0,0.0
-9.028534889221191,1.3623007535934448,3.1938650608062744,0.04261057823896408,0.0324905663728714,-0.06391587108373642,0.0,0.0,0.0
-9.057265281677246,1.357512354850769,3.1866824626922607,0.03568635880947113,0.029827404767274857,-0.06285060197114944,0.0,0.0,0.0
-9.078812599182129,1.4030022621154785,3.1938650608062744,0.030892670154571533,0.029827404767274857,-0.06338323652744293,0.0,0.0,0.0
-9.090784072875977,1.4101848602294922,3.1890766620635986,0.02556634694337845,0.030892670154571533,-0.0649811327457428,0.0,0.0,0.0
-9.097966194152832,1.37906014919281,3.1699230670928955,0.027164245024323463,0.03462109714746475,-0.06657902896404266,0.0,0.0,0.0
-9.095572471618652,1.3862427473068237,3.1699230670928955,0.02876214124262333,0.03568635880947113,-0.0649811327457428,0.0,0.0,0.0
-9.114726066589355,1.3431471586227417,3.1890766620635986,0.03302319720387459,0.03994741663336754,-0.06072007492184639,0.0,0.0,0.0
-9.119514465332031,1.335964560508728,3.2106244564056396,0.037816889584064484,0.037816889584064484,-0.06072007492184639,0.0,0.0,0.0
-9.131484985351562,1.3407529592514038,3.1962592601776123,0.03941478580236435,0.034088462591171265,-0.06285060197114944,0.0,0.0,0.0
-9.14345645904541,1.3479355573654175,3.162740468978882,0.037284258753061295,0.027164245024323463,-0.06817692518234253,0.0,0.0,0.0
-9.14345645904541,1.3694833517074585,3.160346269607544,0.034088462591171265,0.026631612330675125,-0.06817692518234253,0.0,0.0,0.0
-9.14345645904541,1.3742717504501343,3.19865345954895,0.030892670154571533,0.027696875855326653,-0.06657902896404266,0.0,0.0,0.0
-9.157821655273438,1.3287819623947144,3.1914708614349365,0.029827404767274857,0.029294773936271667,-0.06338323652744293,0.0,0.0,0.0
-9.155426979064941,1.3455413579940796,3.181894063949585,0.03142530098557472,0.02822950854897499,-0.0601874440908432,0.0,0.0,0.0
-9.157821655273438,1.3742717504501343,3.1747114658355713,0.033555831760168076,0.030360037460923195,-0.05965480953454971,0.0,0.0,0.0
-9.17936897277832,1.3646949529647827,3.1699230670928955,0.03568635880947113,0.03142530098557472,-0.06285060197114944,0.0,0.0,0.0
-9.2033109664917,1.3694833517074585,3.177105665206909,0.03621899336576462,0.03142530098557472,-0.06817692518234253,0.0,0.0,0.0
-9.205705642700195,1.3694833517074585,3.184288263320923,0.03568635880947113,0.027696875855326653,-0.0697748214006424,0.0,0.0,0.0
-9.196128845214844,1.3766659498214722,3.1699230670928955,0.03302319720387459,0.026631612330675125,-0.06711166352033615,0.0,0.0,0.0
-9.174580574035645,1.381454348564148,3.1483752727508545,0.03302319720387459,0.02822950854897499,-0.06764429807662964,0.0,0.0,0.0
-9.155426979064941,1.3766659498214722,3.1435868740081787,0.03302319720387459,0.029827404767274857,-0.06711166352033615,0.0,0.0,0.0
-9.17697525024414,1.3766659498214722,3.155557870864868,0.03462109714746475,0.029827404767274857,-0.06870955973863602,0.0,0.0,0.0
-9.2033109664917,1.3407529592514038,3.157952070236206,0.03675162419676781,0.023435818031430244,-0.06711166352033615,0.0,0.0,0.0
-9.191340446472168,1.3311761617660522,3.155557870864868,0.03675162419676781,0.020240025594830513,-0.06711166352033615,0.0,0.0,0.0
-9.181763648986816,1.3287819623947144,3.1483752727508545,0.03621899336576462,0.020240025594830513,-0.062317971140146255,0.0,0.0,0.0
-9.184157371520996,1.3263877630233765,3.1435868740081787,0.034088462591171265,0.027164245024323463,-0.05965480953454971,0.0,0.0,0.0
-9.174580574035645,1.3335703611373901,3.138798475265503,0.03462109714746475,0.029827404767274857,-0.05592638626694679,0.0,0.0,0.0
-9.169792175292969,1.3024457693099976,3.1675288677215576,0.03621899336576462,0.02822950854897499,-0.05752428248524666,0.0,0.0,0.0
-9.196128845214844,1.3192051649093628,3.1651346683502197,0.03568635880947113,0.023968450725078583,-0.05965480953454971,0.0,0.0,0.0
-9.17697525024414,1.3311761617660522,3.1675288677215576,0.03462109714746475,0.02183792181313038,-0.06285060197114944,0.0,0.0,0.0
-9.14585018157959,1.335964560508728,3.1651346683502197,0.03568635880947113,0.02503371611237526,-0.06391587108373642,0.0,0.0,0.0
-9.160215377807617,1.338358759880066,3.1507694721221924,0.037816889584064484,0.029827404767274857,-0.06444849818944931,0.0,0.0,0.0
-9.162610054016113,1.314416766166687,3.181894063949585,0.037816889584064484,0.03462109714746475,-0.06391587108373642,0.0,0.0,0.0
-9.184157371520996,1.3120225667953491,3.1651346683502197,0.03675162419676781,0.037284258753061295,-0.06072007492184639,0.0,0.0,0.0
-9.184157371520996,1.316810965538025,3.1699230670928955,0.034088462591171265,0.03302319720387459,-0.05752428248524666,0.0,0.0,0.0
-9.172186851501465,1.3287819623947144,3.1747114658355713,0.03462109714746475,0.029294773936271667,-0.05805691331624985,0.0,0.0,0.0
-9.160215377807617,1.3407529592514038,3.1531636714935303,0.0324905663728714,0.023968450725078583,-0.05965480953454971,0.0,0.0,0.0
-9.160215377807617,1.3072341680526733,3.1459810733795166,0.03675162419676781,0.01810949668288231,-0.0601874440908432,0.0,0.0,0.0
-9.165003776550293,1.3239935636520386,3.1316158771514893,0.03941478580236435,0.013315806165337563,-0.058589547872543335,0.0,0.0,0.0
-9.153033256530762,1.3192051649093628,3.141192674636841,0.03941478580236435,0.01065264455974102,-0.058589547872543335,0.0,0.0,0.0
-9.148244857788086,1.3120225667953491,3.1507694721221924,0.033555831760168076,0.012783173471689224,-0.05699165165424347,0.0,0.0,0.0
-9.153033256530762,1.3120225667953491,3.157952070236206,0.03142530098557472,0.013315806165337563,-0.054861120879650116,0.0,0.0,0.0
-9.14345645904541,1.3048399686813354,3.1723172664642334,0.029827404767274857,0.015446335077285767,-0.05273059383034706,0.0,0.0,0.0
-9.14345645904541,1.2856863737106323,3.1292216777801514,0.033555831760168076,0.01757686398923397,-0.054861120879650116,0.0,0.0,0.0
-9.162610054016113,1.290474772453308,3.1459810733795166,0.03515372797846794,0.01757686398923397,-0.054861120879650116,0.0,0.0,0.0
-9.172186851501465,1.2808979749679565,3.1723172664642334,0.03834952041506767,0.018642129376530647,-0.05965480953454971,0.0,0.0,0.0
-9.160215377807617,1.2713210582733154,3.177105665206909,0.03834952041506767,0.020240025594830513,-0.05326322466135025,0.0,0.0,0.0
-9.133879661560059,1.2976573705673218,3.1531636714935303,0.03675162419676781,0.02183792181313038,-0.04900216683745384,0.0,0.0,0.0
-9.117119789123535,1.3072341680526733,3.1459810733795166,0.03675162419676781,0.02130528911948204,-0.047404270619153976,0.0,0.0,0.0
-9.126696586608887,1.2761094570159912,3.157952070236206,0.03195793554186821,0.02183792181313038,-0.052197959274053574,0.0,0.0,0.0
-9.155426979064941,1.2497732639312744,3.1507694721221924,0.029294773936271667,0.022370554506778717,-0.055393751710653305,0.0,0.0,0.0
-9.167398452758789,1.2473790645599365,3.1316158771514893,0.027164245024323463,0.023435818031430244,-0.05379585549235344,0.0,0.0,0.0
-9.129091262817383,1.2737152576446533,3.1268274784088135,0.03302319720387459,0.023435818031430244,-0.05060006305575371,0.0,0.0,0.0
-9.119514465332031,1.2856863737106323,3.1531636714935303,0.037284258753061295,0.02503371611237526,-0.04687163606286049,0.0,0.0,0.0
-9.138668060302734,1.2880805730819702,3.1723172664642334,0.03888215497136116,0.023968450725078583,-0.04314321279525757,0.0,0.0,0.0
-9.131484985351562,1.2856863737106323,3.1747114658355713,0.03834952041506767,0.026631612330675125,-0.03994741663336754,0.0,0.0,0.0
-9.119514465332031,1.2761094570159912,3.1723172664642334,0.03621899336576462,0.02822950854897499,-0.04207794740796089,0.0,0.0,0.0
-9.121908187866211,1.2689268589019775,3.1651346683502197,0.03621899336576462,0.030892670154571533,-0.03994741663336754,0.0,0.0,0.0
-9.119514465332031,1.2952631711959839,3.1507694721221924,0.03568635880947113,0.027696875855326653,-0.04580637440085411,0.0,0.0,0.0
-9.131484985351562,1.2617442607879639,3.1675288677215576,0.03515372797846794,0.02503371611237526,-0.04314321279525757,0.0,0.0,0.0
-9.119514465332031,1.2497732639312744,3.177105665206909,0.03462109714746475,0.023435818031430244,-0.04314321279525757,0.0,0.0,0.0
-9.105149269104004,1.2521674633026123,3.1723172664642334,0.03462109714746475,0.02556634694337845,-0.040480051189661026,0.0,0.0,0.0
-9.102754592895508,1.259350061416626,3.1483752727508545,0.03302319720387459,0.02503371611237526,-0.04261057823896408,0.0,0.0,0.0
-9.117119789123535,1.2665326595306396,3.1196448802948,0.0324905663728714,0.02077265828847885,-0.04420847445726395,0.0,0.0,0.0
-9.097966194152832,1.2425906658172607,3.1483752727508545,0.03195793554186821,0.01757686398923397,-0.04367584362626076,0.0,0.0,0.0
-9.095572471618652,1.2545616626739502,3.1747114658355713,0.03515372797846794,0.014381070621311665,-0.044741109013557434,0.0,0.0,0.0
-9.081207275390625,1.2713210582733154,3.1866824626922607,0.037284258753061295,0.01757686398923397,-0.0415453165769577,0.0,0.0,0.0
-9.066842079162598,1.2832921743392944,3.1890766620635986,0.034088462591171265,0.018642129376530647,-0.03834952041506767,0.0,0.0,0.0
-9.081207275390625,1.2856863737106323,3.1962592601776123,0.029294773936271667,0.02130528911948204,-0.03462109714746475,0.0,0.0,0.0
-9.095572471618652,1.2401964664459229,3.2082302570343018,0.026631612330675125,0.020240025594830513,-0.03888215497136116,0.0,0.0,0.0
-9.083600997924805,1.2258312702178955,3.157952070236206,0.02876214124262333,0.019707392901182175,-0.03994741663336754,0.0,0.0,0.0
-9.064447402954102,1.235408067703247,3.1651346683502197,0.033555831760168076,0.019707392901182175,-0.037816889584064484,0.0,0.0,0.0
-9.047688484191895,1.256955862045288,3.177105665206909,0.03515372797846794,0.018642129376530647,-0.033555831760168076,0.0,0.0,0.0
-9.050082206726074,1.2713210582733154,3.1531636714935303,0.034088462591171265,0.02183792181313038,-0.03142530098557472,0.0,0.0,0.0
-9.093177795410156,1.2617442607879639,3.184288263320923,0.027164245024323463,0.022903187200427055,-0.03195793554186821,0.0,0.0,0.0
-9.097966194152832,1.2497732639312744,3.1651346683502197,0.02130528911948204,0.027696875855326653,-0.029827404767274857,0.0,0.0,0.0
-9.105149269104004,1.2282254695892334,3.1531636714935303,0.020240025594830513,0.02503371611237526,-0.02822950854897499,0.0,0.0,0.0
-9.102754592895508,1.2330138683319092,3.1531636714935303,0.02503371611237526,0.02503371611237526,-0.030360037460923195,0.0,0.0,0.0
-9.090784072875977,1.256955862045288,3.157952070236206,0.027696875855326653,0.018642129376530647,-0.029294773936271667,0.0,0.0,0.0
-9.081207275390625,1.2282254695892334,3.1675288677215576,0.02876214124262333,0.015446335077285767,-0.02822950854897499,0.0,0.0,0.0
-9.093177795410156,1.235408067703247,3.162740468978882,0.029827404767274857,0.011185277253389359,-0.02077265828847885,0.0,0.0,0.0
-9.07641887664795,1.2425906658172607,3.181894063949585,0.030892670154571533,0.014913702383637428,-0.02130528911948204,0.0,0.0,0.0
-9.069235801696777,1.2449848651885986,3.181894063949585,0.030892670154571533,0.014381070621311665,-0.023968450725078583,0.0,0.0,0.0
-9.078812599182129,1.2401964664459229,3.1723172664642334,0.029827404767274857,0.011185277253389359,-0.02822950854897499,0.0,0.0,0.0
-9.071630477905273,1.237802267074585,3.203441858291626,0.027696875855326653,0.010120012797415257,-0.03142530098557472,0.0,0.0,0.0
-9.074024200439453,1.2066776752471924,3.181894063949585,0.026631612330675125,0.011185277253389359,-0.03142530098557472,0.0,0.0,0.0
-9.071630477905273,1.2234370708465576,3.1890766620635986,0.02450108341872692,0.014913702383637428,-0.029294773936271667,0.0,0.0,0.0
-9.07641887664795,1.2545616626739502,3.181894063949585,0.026098979637026787,0.01065264455974102,-0.02450108341872692,0.0,0.0,0.0
-9.078812599182129,1.2689268589019775,3.1723172664642334,0.029294773936271667,0.009054748341441154,-0.023968450725078583,0.0,0.0,0.0
-9.066842079162598,1.2545616626739502,3.184288263320923,0.027164245024323463,0.006391586735844612,-0.020240025594830513,0.0,0.0,0.0
-9.083600997924805,1.237802267074585,3.155557870864868,0.027164245024323463,0.005858954507857561,-0.01810949668288231,0.0,0.0,0.0
-9.066842079162598,1.237802267074585,3.141192674636841,0.02130528911948204,0.003728425595909357,-0.015446335077285767,0.0,0.0,0.0
-9.064447402954102,1.2306196689605713,3.160346269607544,0.020240025594830513,0.004261057823896408,-0.018642129376530647,0.0,0.0,0.0
-9.059659004211426,1.237802267074585,3.184288263320923,0.020240025594830513,0.006924218963831663,-0.02130528911948204,0.0,0.0,0.0
-9.045293807983398,1.2713210582733154,3.1914708614349365,0.02450108341872692,0.007456851191818714,-0.02130528911948204,0.0,0.0,0.0
-9.097966194152832,1.2761094570159912,3.1651346683502197,0.02822950854897499,0.005858954507857561,-0.018642129376530647,0.0,0.0,0.0
-9.078812599182129,1.235408067703247,3.1866824626922607,0.023968450725078583,0.003195793367922306,-0.017044231295585632,0.0,0.0,0.0
-9.081207275390625,1.2449848651885986,3.1914708614349365,0.02183792181313038,0.002130528911948204,-0.015446335077285767,0.0,0.0,0.0
-9.097966194152832,1.2425906658172607,3.179499864578247,0.01810949668288231,0.0,-0.01810949668288231,0.0,0.0,0.0
-9.114726066589355,1.2186486721038818,3.1675288677215576,0.01757686398923397,0.0,-0.015978967770934105,0.0,0.0,0.0
-9.105149269104004,1.2425906658172607,3.201047658920288,0.015978967770934105,-0.003195793367922306,-0.017044231295585632,0.0,0.0,0.0
-9.124302864074707,1.2210428714752197,3.19865345954895,0.02183792181313038,-0.002130528911948204,-0.013315806165337563,0.0,0.0,0.0
-9.11233139038086,1.259350061416626,3.2082302570343018,0.02556634694337845,-0.004793690051883459,-0.015978967770934105,0.0,0.0,0.0
-9.105149269104004,1.2665326595306396,3.201047658920288,0.027164245024323463,-0.004793690051883459,-0.019707392901182175,0.0,0.0,0.0
-9.105149269104004,1.2545616626739502,3.1890766620635986,0.022903187200427055,-0.007989483885467052,-0.022903187200427055,0.0,0.0,0.0
-9.08838939666748,1.2665326595306396,3.203441858291626,0.023968450725078583,-0.007456851191818714,-0.02450108341872692,0.0,0.0,0.0
-9.050082206726074,1.2808979749679565,3.1914708614349365,0.02077265828847885,-0.006924218963831663,-0.02130528911948204,0.0,0.0,0.0
-9.059659004211426,1.256955862045288,3.1938650608062744,0.020240025594830513,-0.006391586735844612,-0.02183792181313038,0.0,0.0,0.0
-9.0859956741333,1.2521674633026123,3.205836057662964,0.019174760207533836,-0.007989483885467052,-0.016511598601937294,0.0,0.0,0.0
-9.102754592895508,1.2521674633026123,3.2178070545196533,0.020240025594830513,-0.009054748341441154,-0.012783173471689224,0.0,0.0,0.0
-9.097966194152832,1.2210428714752197,3.2178070545196533,0.018642129376530647,-0.01065264455974102,-0.007989483885467052,0.0,0.0,0.0
-9.097966194152832,1.213860273361206,3.205836057662964,0.01810949668288231,-0.012783173471689224,-0.007456851191818714,0.0,0.0,0.0
-9.074024200439453,1.2473790645599365,3.227383852005005,0.02130528911948204,-0.018642129376530647,-0.009587380103766918,0.0,0.0,0.0
-9.07641887664795,1.2545616626739502,3.227383852005005,0.023435818031430244,-0.022370554506778717,-0.013848437927663326,0.0,0.0,0.0
-9.090784072875977,1.2473790645599365,3.2130186557769775,0.023435818031430244,-0.022903187200427055,-0.015978967770934105,0.0,0.0,0.0
-9.100360870361328,1.237802267074585,3.1962592601776123,0.019707392901182175,-0.017044231295585632,-0.01757686398923397,0.0,0.0,0.0
-9.131484985351562,1.2282254695892334,3.1747114658355713,0.020240025594830513,-0.009587380103766918,-0.01810949668288231,0.0,0.0,0.0
-9.114726066589355,1.2330138683319092,3.19865345954895,0.01810949668288231,-0.004261057823896408,-0.01810949668288231,0.0,0.0,0.0
-9.129091262817383,1.235408067703247,3.1938650608062744,0.018642129376530647,-0.002663161139935255,-0.015446335077285767,0.0,0.0,0.0
-9.14345645904541,1.2401964664459229,3.203441858291626,0.017044231295585632,-0.004793690051883459,-0.01225054170936346,0.0,0.0,0.0
-9.14345645904541,1.2449848651885986,3.2297780513763428,0.018642129376530647,-0.010120012797415257,-0.01065264455974102,0.0,0.0,0.0
-9.131484985351562,1.235408067703247,3.2130186557769775,0.018642129376530647,-0.019174760207533836,-0.011185277253389359,0.0,0.0,0.0
-9.090784072875977,1.213860273361206,3.224989652633667,0.01757686398923397,-0.027164245024323463,-0.012783173471689224,0.0,0.0,0.0
-9.095572471618652,1.2066776752471924,3.224989652633667,0.015446335077285767,-0.026098979637026787,-0.012783173471689224,0.0,0.0,0.0
-9.093177795410156,1.2114660739898682,3.2082302570343018,0.014381070621311665,-0.022903187200427055,-0.014913702383637428,0.0,0.0,0.0
-9.0859956741333,1.213860273361206,3.184288263320923,0.01757686398923397,-0.013848437927663326,-0.014381070621311665,0.0,0.0,0.0
-9.114726066589355,1.1899182796478271,3.179499864578247,0.018642129376530647,-0.01225054170936346,-0.012783173471689224,0.0,0.0,0.0
-9.107542991638184,1.1875240802764893,3.1890766620635986,0.014913702383637428,-0.01065264455974102,-0.009054748341441154,0.0,0.0,0.0
-9.136273384094238,1.2042834758758545,3.201047658920288,0.009054748341441154,-0.014381070621311665,-0.005858954507857561,0.0,0.0,0.0
-9.138668060302734,1.2042834758758545,3.2154128551483154,0.005858954507857561,-0.019707392901182175,-0.006391586735844612,0.0,0.0,0.0
-9.126696586608887,1.2090718746185303,3.220201253890991,0.008522115647792816,-0.02503371611237526,-0.006924218963831663,0.0,0.0,0.0
-9.114726066589355,1.2401964664459229,3.2130186557769775,0.011717909015715122,-0.029827404767274857,-0.009054748341441154,0.0,0.0,0.0
-9.11233139038086,1.2425906658172607,3.205836057662964,0.014913702383637428,-0.03302319720387459,-0.008522115647792816,0.0,0.0,0.0
-9.126696586608887,1.1971008777618408,3.2417490482330322,0.011185277253389359,-0.029827404767274857,-0.009587380103766918,0.0,0.0,0.0
-9.124302864074707,1.1971008777618408,3.2417490482330322,0.008522115647792816,-0.027164245024323463,-0.006391586735844612,0.0,0.0,0.0
-9.131484985351562,1.2090718746185303,3.2321722507476807,0.004261057823896408,-0.022903187200427055,-0.008522115647792816,0.0,0.0,0.0
-9.157821655273438,1.1994950771331787,3.2393548488616943,0.00532632227987051,-0.022370554506778717,-0.004793690051883459,0.0,0.0,0.0
-9.129091262817383,1.2330138683319092,3.2369606494903564,0.006924218963831663,-0.02183792181313038,-0.00532632227987051,0.0,0.0,0.0
-9.126696586608887,1.2306196689605713,3.24414324760437,0.005858954507857561,-0.023968450725078583,0.000532632227987051,0.0,0.0,0.0
-9.136273384094238,1.2401964664459229,3.2417490482330322,0.003728425595909357,-0.027164245024323463,0.001597896683961153,0.0,0.0,0.0
-9.14345645904541,1.235408067703247,3.251325845718384,0.000532632227987051,-0.023435818031430244,0.002130528911948204,0.0,0.0,0.0
-9.138668060302734,1.2090718746185303,3.2632968425750732,0.002663161139935255,-0.02130528911948204,0.0,0.0,0.0,0.0
-9.138668060302734,1.1779472827911377,3.2417490482330322,0.005858954507857561,-0.01757686398923397,-0.002663161139935255,0.0,0.0,0.0
-9.141061782836914,1.2258312702178955,3.2537200450897217,0.004261057823896408,-0.022370554506778717,-0.001597896683961153,0.0,0.0,0.0
-9.138668060302734,1.2425906658172607,3.265691041946411,0.001065264455974102,-0.022370554506778717,-0.001065264455974102,0.0,0.0,0.0
-9.136273384094238,1.2282254695892334,3.265691041946411,-0.003728425595909357,-0.02450108341872692,0.005858954507857561,0.0,0.0,0.0
-9.136273384094238,1.2186486721038818,3.251325845718384,-0.002130528911948204,-0.02556634694337845,0.004793690051883459,0.0,0.0,0.0
-9.148244857788086,1.237802267074585,3.2345664501190186,-0.002663161139935255,-0.029294773936271667,0.002663161139935255,0.0,0.0,0.0
-9.138668060302734,1.237802267074585,3.2369606494903564,0.001065264455974102,-0.033555831760168076,-0.001065264455974102,0.0,0.0,0.0
-9.136273384094238,1.2234370708465576,3.251325845718384,0.001065264455974102,-0.037284258753061295,-0.004793690051883459,0.0,0.0,0.0
-9.141061782836914,1.2306196689605713,3.265691041946411,0.002130528911948204,-0.0415453165769577,-0.001065264455974102,0.0,0.0,0.0
-9.157821655273438,1.2401964664459229,3.272873640060425,-0.001597896683961153,-0.04420847445726395,-0.003195793367922306,0.0,0.0,0.0
-9.17697525024414,1.2234370708465576,3.265691041946411,-0.003195793367922306,-0.041012682020664215,0.004793690051883459,0.0,0.0,0.0
-9.167398452758789,1.1875240802764893,3.2561142444610596,-0.005858954507857561,-0.03675162419676781,0.006391586735844612,0.0,0.0,0.0
-9.193734169006348,1.192312479019165,3.2632968425750732,-0.00532632227987051,-0.034088462591171265,0.009054748341441154,0.0,0.0,0.0
-9.191340446472168,1.1875240802764893,3.2537200450897217,-0.003728425595909357,-0.034088462591171265,0.004261057823896408,0.0,0.0,0.0
-9.174580574035645,1.1994950771331787,3.2393548488616943,-0.004793690051883459,-0.033555831760168076,0.002663161139935255,0.0,0.0,0.0
-9.165003776550293,1.2234370708465576,3.2393548488616943,-0.00532632227987051,-0.029294773936271667,0.004793690051883459,0.0,0.0,0.0
-9.17697525024414,1.1994950771331787,3.265691041946411,-0.009587380103766918,-0.027164245024323463,0.008522115647792816,0.0,0.0,0.0
-9.196128845214844,1.2090718746185303,3.2609026432037354,-0.009587380103766918,-0.027696875855326653,0.004793690051883459,0.0,0.0,0.0
-9.196128845214844,1.2258312702178955,3.272873640060425,-0.007989483885467052,-0.030892670154571533,0.002130528911948204,0.0,0.0,0.0
-9.181763648986816,1.213860273361206,3.292027473449707,-0.009054748341441154,-0.03302319720387459,-0.000532632227987051,0.0,0.0,0.0
-9.150638580322266,1.1851298809051514,3.3063926696777344,-0.012783173471689224,-0.030892670154571533,0.003195793367922306,0.0,0.0,0.0
-9.114726066589355,1.1755530834197998,3.3039984703063965,-0.01225054170936346,-0.02876214124262333,0.0,0.0,0.0,0.0
-9.136273384094238,1.213860273361206,3.3087868690490723,-0.008522115647792816,-0.029294773936271667,0.0,0.0,0.0,0.0
-9.174580574035645,1.2090718746185303,3.2848448753356934,-0.004261057823896408,-0.03302319720387459,-0.001065264455974102,0.0,0.0,0.0
-9.188945770263672,1.1875240802764893,3.268085241317749,-0.006391586735844612,-0.03462109714746475,-0.001065264455974102,0.0,0.0,0.0
-9.181763648986816,1.1779472827911377,3.268085241317749,-0.01065264455974102,-0.03621899336576462,0.002130528911948204,0.0,0.0,0.0
-9.17697525024414,1.194706678390503,3.2800562381744385,-0.011717909015715122,-0.03142530098557472,0.00532632227987051,0.0,0.0,0.0
-9.17697525024414,1.2114660739898682,3.3207578659057617,-0.012783173471689224,-0.029827404767274857,0.006924218963831663,0.0,0.0,0.0
-9.136273384094238,1.2042834758758545,3.3255462646484375,-0.012783173471689224,-0.026098979637026787,0.006391586735844612,0.0,0.0,0.0
-9.150638580322266,1.2018892765045166,3.315969467163086,-0.013848437927663326,-0.026098979637026787,0.005858954507857561,0.0,0.0,0.0
-9.17936897277832,1.2114660739898682,3.3039984703063965,-0.013848437927663326,-0.02503371611237526,0.00532632227987051,0.0,0.0,0.0
-9.17936897277832,1.2282254695892334,3.294421672821045,-0.014381070621311665,-0.022370554506778717,0.005858954507857561,0.0,0.0,0.0
-9.157821655273438,1.237802267074585,3.294421672821045,-0.015446335077285767,-0.02450108341872692,0.002663161139935255,0.0,0.0,0.0
-9.153033256530762,1.216254472732544,3.292027473449707,-0.018642129376530647,-0.02503371611237526,0.00532632227987051,0.0,0.0,0.0
-9.14345645904541,1.2306196689605713,3.3087868690490723,-0.02130528911948204,-0.026631612330675125,0.003728425595909357,0.0,0.0,0.0
-9.131484985351562,1.213860273361206,3.3063926696777344,-0.023435818031430244,-0.02130528911948204,0.009054748341441154,0.0,0.0,0.0
-9.133879661560059,1.1755530834197998,3.2824504375457764,-0.022903187200427055,-0.01757686398923397,0.009587380103766918,0.0,0.0,0.0
-9.165003776550293,1.2042834758758545,3.268085241317749,-0.022903187200427055,-0.014913702383637428,0.011717909015715122,0.0,0.0,0.0
-9.186552047729492,1.1971008777618408,3.2561142444610596,-0.02183792181313038,-0.016511598601937294,0.009587380103766918,0.0,0.0,0.0
-9.162610054016113,1.2114660739898682,3.2848448753356934,-0.020240025594830513,-0.018642129376530647,0.006924218963831663,0.0,0.0,0.0
-9.157821655273438,1.2234370708465576,3.296815872192383,-0.019707392901182175,-0.022370554506778717,0.004261057823896408,0.0,0.0,0.0
-9.162610054016113,1.216254472732544,3.289633274078369,-0.022370554506778717,-0.02450108341872692,0.0,0.0,0.0,0.0
-9.14585018157959,1.1994950771331787,3.2848448753356934,-0.02503371611237526,-0.02450108341872692,-0.001065264455974102,0.0,0.0,0.0
-9.138668060302734,1.2042834758758545,3.339911460876465,-0.02130528911948204,-0.02077265828847885,0.0,0.0,0.0,0.0
-9.150638580322266,1.1899182796478271,3.3207578659057617,-0.020240025594830513,-0.022903187200427055,0.00532632227987051,0.0,0.0,0.0
-9.150638580322266,1.194706678390503,3.31118106842041,-0.02130528911948204,-0.023968450725078583,0.011185277253389359,0.0,0.0,0.0
-9.169792175292969,1.2066776752471924,3.315969467163086,-0.02503371611237526,-0.029294773936271667,0.01225054170936346,0.0,0.0,0.0
-9.222464561462402,1.2090718746185303,3.3279404640197754,-0.022370554506778717,-0.029294773936271667,0.008522115647792816,0.0,0.0,0.0
-9.217676162719727,1.235408067703247,3.3279404640197754,-0.02450108341872692,-0.027696875855326653,0.003728425595909357,0.0,0.0,0.0
-9.2033109664917,1.2210428714752197,3.3207578659057617,-0.029294773936271667,-0.027164245024323463,0.003195793367922306,0.0,0.0,0.0
-9.191340446472168,1.2066776752471924,3.3255462646484375,-0.037284258753061295,-0.02556634694337845,0.007456851191818714,0.0,0.0,0.0
-9.198522567749023,1.194706678390503,3.3303346633911133,-0.03621899336576462,-0.023968450725078583,0.011717909015715122,0.0,0.0,0.0
-9.224859237670898,1.1875240802764893,3.3279404640197754,-0.030892670154571533,-0.02183792181313038,0.010120012797415257,0.0,0.0,0.0
-9.224859237670898,1.192312479019165,3.313575267791748,-0.027164245024323463,-0.019174760207533836,0.008522115647792816,0.0,0.0,0.0
-9.232041358947754,1.216254472732544,3.335123062133789,-0.027696875855326653,-0.019174760207533836,0.00532632227987051,0.0,0.0,0.0
-9.220070838928223,1.2186486721038818,3.335123062133789,-0.0324905663728714,-0.015446335077285767,0.011185277253389359,0.0,0.0,0.0
-9.220070838928223,1.2282254695892334,3.335123062133789,-0.03195793554186821,-0.015978967770934105,0.012783173471689224,0.0,0.0,0.0
-9.232041358947754,1.2401964664459229,3.335123062133789,-0.030892670154571533,-0.019174760207533836,0.014381070621311665,0.0,0.0,0.0
-9.239224433898926,1.2306196689605713,3.3207578659057617,-0.030360037460923195,-0.020240025594830513,0.01065264455974102,0.0,0.0,0.0
-9.205705642700195,1.2066776752471924,3.3710360527038574,-0.034088462591171265,-0.022370554506778717,0.009054748341441154,0.0,0.0,0.0
-9.227252960205078,1.2330138683319092,3.339911460876465,-0.03941478580236435,-0.016511598601937294,0.009587380103766918,0.0,0.0,0.0
-9.215282440185547,1.2186486721038818,3.3279404640197754,-0.04261057823896408,-0.009587380103766918,0.008522115647792816,0.0,0.0,0.0
-9.191340446472168,1.1971008777618408,3.339911460876465,-0.040480051189661026,-0.006924218963831663,0.009587380103766918,0.0,0.0,0.0
-9.208099365234375,1.2258312702178955,3.3494882583618164,-0.03621899336576462,-0.009587380103766918,0.00532632227987051,0.0,0.0,0.0
-9.232041358947754,1.235408067703247,3.354276657104492,-0.0324905663728714,-0.018642129376530647,0.007456851191818714,0.0,0.0,0.0
-9.239224433898926,1.194706678390503,3.361459255218506,-0.0324905663728714,-0.019174760207533836,0.008522115647792816,0.0,0.0,0.0
-9.227252960205078,1.2018892765045166,3.361459255218506,-0.03195793554186821,-0.017044231295585632,0.016511598601937294,0.0,0.0,0.0
-9.208099365234375,1.2234370708465576,3.3662476539611816,-0.03515372797846794,-0.014913702383637428,0.014913702383637428,0.0,0.0,0.0
-9.20091724395752,1.216254472732544,3.3854012489318848,-0.03675162419676781,-0.015978967770934105,0.014913702383637428,0.0,0.0,0.0
-9.227252960205078,1.2114660739898682,3.3686418533325195,-0.03941478580236435,-0.01757686398923397,0.013315806165337563,0.0,0.0,0.0
-9.193734169006348,1.2114660739898682,3.3423056602478027,-0.03888215497136116,-0.015446335077285767,0.015446335077285767,0.0,0.0,0.0
-9.191340446472168,1.2066776752471924,3.3255462646484375,-0.03888215497136116,-0.01225054170936346,0.011185277253389359,0.0,0.0,0.0
-9.210494041442871,1.1994950771331787,3.332728862762451,-0.03941478580236435,-0.010120012797415257,0.007989483885467052,0.0,0.0,0.0
-9.224859237670898,1.1994950771331787,3.354276657104492,-0.03675162419676781,-0.01225054170936346,0.002130528911948204,0.0,0.0,0.0
-9.198522567749023,1.216254472732544,3.3494882583618164,-0.037284258753061295,-0.01065264455974102,0.004261057823896408,0.0,0.0,0.0
-9.215282440185547,1.1994950771331787,3.3207578659057617,-0.037816889584064484,-0.01065264455974102,0.006924218963831663,0.0,0.0,0.0
-9.220070838928223,1.2042834758758545,3.3423056602478027,-0.04207794740796089,-0.007989483885467052,0.013315806165337563,0.0,0.0,0.0
-9.210494041442871,1.2042834758758545,3.35667085647583,-0.044741109013557434,-0.009054748341441154,0.011185277253389359,0.0,0.0,0.0
-9.198522567749023,1.1994950771331787,3.3446998596191406,-0.04420847445726395,-0.006391586735844612,0.01225054170936346,0.0,0.0,0.0
-9.20091724395752,1.2210428714752197,3.31118106842041,-0.03888215497136116,-0.005858954507857561,0.011717909015715122,0.0,0.0,0.0
-9.20091724395752,1.2258312702178955,3.339911460876465,-0.037284258753061295,-0.004793690051883459,0.013848437927663326,0.0,0.0,0.0
-9.220070838928223,1.213860273361206,3.3518824577331543,-0.03941478580236435,-0.006924218963831663,0.007989483885467052,0.0,0.0,0.0
-9.217676162719727,1.1803414821624756,3.359065055847168,-0.04580637440085411,-0.008522115647792816,0.00532632227987051,0.0,0.0,0.0
-9.208099365234375,1.1540051698684692,3.3662476539611816,-0.047936901450157166,-0.009054748341441154,0.004261057823896408,0.0,0.0,0.0
-9.21288776397705,1.170764684677124,3.3734302520751953,-0.04687163606286049,-0.009054748341441154,0.006924218963831663,0.0,0.0,0.0
-9.21288776397705,1.2090718746185303,3.3446998596191406,-0.0415453165769577,-0.00532632227987051,0.01065264455974102,0.0,0.0,0.0
-9.21288776397705,1.2066776752471924,3.3423056602478027,-0.03834952041506767,-0.001597896683961153,0.014913702383637428,0.0,0.0,0.0
-9.205705642700195,1.2018892765045166,3.359065055847168,-0.03888215497136116,0.001597896683961153,0.016511598601937294,0.0,0.0,0.0
-9.20091724395752,1.216254472732544,3.3734302520751953,-0.04314321279525757,0.002663161139935255,0.016511598601937294,0.0,0.0,0.0
-9.2033109664917,1.2330138683319092,3.361459255218506,-0.04527373984456062,-0.000532632227987051,0.013315806165337563,0.0,0.0,0.0
-9.169792175292969,1.1659762859344482,3.3423056602478027,-0.04527373984456062,-0.003195793367922306,0.011185277253389359,0.0,0.0,0.0
-9.188945770263672,1.1492167711257935,3.3207578659057617,-0.04687163606286049,-0.005858954507857561,0.009054748341441154,0.0,0.0,0.0
-9.196128845214844,1.1899182796478271,3.3446998596191406,-0.04687163606286049,-0.001597896683961153,0.009054748341441154,0.0,0.0,0.0
-9.2033109664917,1.2090718746185303,3.354276657104492,-0.04953479766845703,0.002130528911948204,0.012783173471689224,0.0,0.0,0.0
-9.208099365234375,1.1779472827911377,3.332728862762451,-0.054861120879650116,0.005858954507857561,0.006924218963831663,0.0,0.0,0.0
-9.184157371520996,1.1635820865631104,3.3494882583618164,-0.05699165165424347,0.006924218963831663,0.00532632227987051,0.0,0.0,0.0
-9.191340446472168,1.2090718746185303,3.315969467163086,-0.05645901709794998,0.009054748341441154,0.001597896683961153,0.0,0.0,0.0
-9.196128845214844,1.2066776752471924,3.31118106842041,-0.052197959274053574,0.009587380103766918,0.010120012797415257,0.0,0.0,0.0
-9.174580574035645,1.192312479019165,3.3303346633911133,-0.0511326938867569,0.006391586735844612,0.01810949668288231,0.0,0.0,0.0
-9.153033256530762,1.1779472827911377,3.339911460876465,-0.047936901450157166,0.009054748341441154,0.022370554506778717,0.0,0.0,0.0
-9.172186851501465,1.1540051698684692,3.3063926696777344,-0.04580637440085411,0.01065264455974102,0.023435818031430244,0.0,0.0,0.0
-9.191340446472168,1.173158884048462,3.31118106842041,-0.04314321279525757,0.014381070621311665,0.01757686398923397,0.0,0.0,0.0
-9.186552047729492,1.1803414821624756,3.332728862762451,-0.047936901450157166,0.013315806165337563,0.014381070621311665,0.0,0.0,0.0
-9.169792175292969,1.1659762859344482,3.3207578659057617,-0.05006743222475052,0.01225054170936346,0.011185277253389359,0.0,0.0,0.0
-9.155426979064941,1.1563994884490967,3.3087868690490723,-0.052197959274053574,0.01225054170936346,0.014381070621311665,0.0,0.0,0.0
-9.157821655273438,1.1659762859344482,3.3303346633911133,-0.04900216683745384,0.01225054170936346,0.014381070621311665,0.0,0.0,0.0
-9.2033109664917,1.1540051698684692,3.337517261505127,-0.05060006305575371,0.011717909015715122,0.01065264455974102,0.0,0.0,0.0
-9.193734169006348,1.1468225717544556,3.3255462646484375,-0.051665328443050385,0.013848437927663326,0.009587380103766918,0.0,0.0,0.0
-9.174580574035645,1.1563994884490967,3.3039984703063965,-0.05326322466135025,0.016511598601937294,0.010120012797415257,0.0,0.0,0.0
-9.160215377807617,1.1683704853057861,3.2872390747070312,-0.05006743222475052,0.020240025594830513,0.015446335077285767,0.0,0.0,0.0
-9.167398452758789,1.1659762859344482,3.289633274078369,-0.05273059383034706,0.015978967770934105,0.014913702383637428,0.0,0.0,0.0
-9.188945770263672,1.1563994884490967,3.3087868690490723,-0.051665328443050385,0.013848437927663326,0.013315806165337563,0.0,0.0,0.0
-9.217676162719727,1.1587936878204346,3.3087868690490723,-0.054861120879650116,0.011717909015715122,0.011717909015715122,0.0,0.0,0.0
-9.217676162719727,1.1779472827911377,3.3016042709350586,-0.051665328443050385,0.012783173471689224,0.011717909015715122,0.0,0.0,0.0
-9.198522567749023,1.1779472827911377,3.3207578659057617,-0.05273059383034706,0.012783173471689224,0.013315806165337563,0.0,0.0,0.0
-9.181763648986816,1.1563994884490967,3.354276657104492,-0.05432849004864693,0.011717909015715122,0.015446335077285767,0.0,0.0,0.0
-9.188945770263672,1.1540051698684692,3.3470940589904785,-0.05699165165424347,0.013848437927663326,0.02077265828847885,0.0,0.0,0.0
-9.193734169006348,1.1540051698684692,3.3016042709350586,-0.06125270947813988,0.017044231295585632,0.023435818031430244,0.0,0.0,0.0
-9.181763648986816,1.1563994884490967,3.272873640060425,-0.0601874440908432,0.019707392901182175,0.02503371611237526,0.0,0.0,0.0
-9.181763648986816,1.1611878871917725,3.2848448753356934,-0.05965480953454971,0.02183792181313038,0.02130528911948204,0.0,0.0,0.0
-9.191340446472168,1.1540051698684692,3.3063926696777344,-0.05592638626694679,0.018642129376530647,0.018642129376530647,0.0,0.0,0.0
-9.188945770263672,1.139639973640442,3.294421672821045,-0.05699165165424347,0.016511598601937294,0.01757686398923397,0.0,0.0,0.0
-9.184157371520996,1.1540051698684692,3.3087868690490723,-0.05432849004864693,0.014381070621311665,0.019174760207533836,0.0,0.0,0.0
-9.17697525024414,1.1180921792984009,3.294421672821045,-0.05592638626694679,0.015978967770934105,0.02183792181313038,0.0,0.0,0.0
-9.17697525024414,1.1204863786697388,3.3063926696777344,-0.055393751710653305,0.020240025594830513,0.023435818031430244,0.0,0.0,0.0
-9.188945770263672,1.1468225717544556,3.313575267791748,-0.06125270947813988,0.02130528911948204,0.02183792181313038,0.0,0.0,0.0
-9.208099365234375,1.1540051698684692,3.296815872192383,-0.06285060197114944,0.02450108341872692,0.026631612330675125,0.0,0.0,0.0
-9.239224433898926,1.113303780555725,3.3063926696777344,-0.06444849818944931,0.02503371611237526,0.029294773936271667,0.0,0.0,0.0
-9.227252960205078,1.115697979927063,3.265691041946411,-0.06285060197114944,0.026631612330675125,0.03462109714746475,0.0,0.0,0.0
-9.23443603515625,1.1444283723831177,3.2537200450897217,-0.05699165165424347,0.026098979637026787,0.037284258753061295,0.0,0.0,0.0
-9.222464561462402,1.1563994884490967,3.2800562381744385,-0.05326322466135025,0.029294773936271667,0.0324905663728714,0.0,0.0,0.0
-9.198522567749023,1.1420341730117798,3.3016042709350586,-0.055393751710653305,0.0324905663728714,0.029827404767274857,0.0,0.0,0.0
-9.229647636413574,1.1228805780410767,3.2561142444610596,-0.05965480953454971,0.03515372797846794,0.022370554506778717,0.0,0.0,0.0
-9.23443603515625,1.1228805780410767,3.270479440689087,-0.07030745595693588,0.03568635880947113,0.027696875855326653,0.0,0.0,0.0
-9.25598430633545,1.1276689767837524,3.2776620388031006,-0.07190535217523575,0.034088462591171265,0.030892670154571533,0.0,0.0,0.0
-9.26795482635498,1.1252747774124146,3.2800562381744385,-0.07137271761894226,0.030892670154571533,0.03462109714746475,0.0,0.0,0.0
-9.263166427612305,1.1252747774124146,3.270479440689087,-0.06604639440774918,0.027164245024323463,0.034088462591171265,0.0,0.0,0.0
-9.251195907592773,1.139639973640442,3.251325845718384,-0.06338323652744293,0.02503371611237526,0.040480051189661026,0.0,0.0,0.0
-9.227252960205078,1.139639973640442,3.270479440689087,-0.06711166352033615,0.026098979637026787,0.04420847445726395,0.0,0.0,0.0
-9.246407508850098,1.1109095811843872,3.2609026432037354,-0.06817692518234253,0.029294773936271667,0.04207794740796089,0.0,0.0,0.0
-9.258378028869629,1.1276689767837524,3.2609026432037354,-0.07137271761894226,0.03568635880947113,0.03675162419676781,0.0,0.0,0.0
-9.2655611038208,1.137245774269104,3.2632968425750732,-0.06870955973863602,0.04527373984456062,0.03302319720387459,0.0,0.0,0.0
-9.287108421325684,1.094150185585022,3.2537200450897217,-0.07190535217523575,0.04900216683745384,0.03462109714746475,0.0,0.0,0.0
-9.313445091247559,1.1228805780410767,3.268085241317749,-0.0692421942949295,0.048469532281160355,0.03941478580236435,0.0,0.0,0.0
-9.26795482635498,1.1085153818130493,3.227383852005005,-0.07030745595693588,0.04261057823896408,0.04527373984456062,0.0,0.0,0.0
-9.270349502563477,1.1085153818130493,3.222595453262329,-0.06604639440774918,0.04261057823896408,0.05273059383034706,0.0,0.0,0.0
-9.270349502563477,1.1180921792984009,3.2297780513763428,-0.07030745595693588,0.047404270619153976,0.0511326938867569,0.0,0.0,0.0
-9.251195907592773,1.1276689767837524,3.2297780513763428,-0.07510114461183548,0.05006743222475052,0.04580637440085411,0.0,0.0,0.0
-9.279926300048828,1.1276689767837524,3.2154128551483154,-0.08255799859762192,0.04953479766845703,0.03941478580236435,0.0,0.0,0.0
-9.23682975769043,1.1276689767837524,3.24414324760437,-0.08149272948503494,0.048469532281160355,0.037284258753061295,0.0,0.0,0.0
-9.222464561462402,1.1300631761550903,3.2752678394317627,-0.07936220616102219,0.04687163606286049,0.041012682020664215,0.0,0.0,0.0
-9.222464561462402,1.139639973640442,3.2800562381744385,-0.07350324839353561,0.047936901450157166,0.044741109013557434,0.0,0.0,0.0
-9.217676162719727,1.137245774269104,3.2609026432037354,-0.0697748214006424,0.04687163606286049,0.047936901450157166,0.0,0.0,0.0
-9.205705642700195,1.1013327836990356,3.2106244564056396,-0.06657902896404266,0.05060006305575371,0.04687163606286049,0.0,0.0,0.0
-9.258378028869629,1.113303780555725,3.2178070545196533,-0.06764429807662964,0.04900216683745384,0.05006743222475052,0.0,0.0,0.0
-9.241618156433105,1.1061211824417114,3.227383852005005,-0.07243798673152924,0.05006743222475052,0.051665328443050385,0.0,0.0,0.0
-9.205705642700195,1.0965443849563599,3.224989652633667,-0.07829693704843521,0.05060006305575371,0.05273059383034706,0.0,0.0,0.0
-9.17936897277832,1.1061211824417114,3.2178070545196533,-0.08255799859762192,0.05326322466135025,0.05273059383034706,0.0,0.0,0.0
-9.193734169006348,1.1444283723831177,3.2154128551483154,-0.0788295716047287,0.05592638626694679,0.05326322466135025,0.0,0.0,0.0
-9.21288776397705,1.0965443849563599,3.1866824626922607,-0.07669904083013535,0.05273059383034706,0.051665328443050385,0.0,0.0,0.0
-9.191340446472168,1.1492167711257935,3.2178070545196533,-0.07563377916812897,0.05006743222475052,0.04900216683745384,0.0,0.0,0.0
-9.222464561462402,1.113303780555725,3.201047658920288,-0.07936220616102219,0.04580637440085411,0.04953479766845703,0.0,0.0,0.0
-9.232041358947754,1.1228805780410767,3.220201253890991,-0.08149272948503494,0.04207794740796089,0.051665328443050385,0.0,0.0,0.0
-9.239224433898926,1.094150185585022,3.220201253890991,-0.0830906331539154,0.0463390052318573,0.05326322466135025,0.0,0.0,0.0
-9.227252960205078,1.094150185585022,3.1890766620635986,-0.0884169489145279,0.04900216683745384,0.05006743222475052,0.0,0.0,0.0
-9.241618156433105,1.0989385843276978,3.2082302570343018,-0.09161274880170822,0.054861120879650116,0.05273059383034706,0.0,0.0,0.0
-9.258378028869629,1.1061211824417114,3.1747114658355713,-0.08894958347082138,0.05273059383034706,0.05592638626694679,0.0,0.0,0.0
-9.26795482635498,1.1061211824417114,3.1435868740081787,-0.08628642559051514,0.05379585549235344,0.059122178703546524,0.0,0.0,0.0
-9.26795482635498,1.094150185585022,3.1531636714935303,-0.0884169489145279,0.05645901709794998,0.05752428248524666,0.0,0.0,0.0
-9.25598430633545,1.0821791887283325,3.1914708614349365,-0.09427590668201447,0.059122178703546524,0.05326322466135025,0.0,0.0,0.0
-9.28950309753418,1.0773907899856567,3.160346269607544,-0.09693906456232071,0.06125270947813988,0.05379585549235344,0.0,0.0,0.0
-9.294291496276855,1.0821791887283325,3.1483752727508545,-0.09587380290031433,0.062317971140146255,0.05273059383034706,0.0,0.0,0.0
-9.294291496276855,1.094150185585022,3.1459810733795166,-0.09427590668201447,0.06657902896404266,0.05379585549235344,0.0,0.0,0.0
-9.301473617553711,1.1013327836990356,3.141192674636841,-0.09374327212572098,0.06817692518234253,0.05432849004864693,0.0,0.0,0.0
-9.29189682006836,1.1085153818130493,3.134010076522827,-0.09321064502000809,0.07297061383724213,0.05699165165424347,0.0,0.0,0.0
-9.311050415039062,1.1109095811843872,3.134010076522827,-0.0974716991186142,0.07456851750612259,0.05592638626694679,0.0,0.0,0.0
-9.313445091247559,1.113303780555725,3.1723172664642334,-0.09800433367490768,0.07563377916812897,0.05379585549235344,0.0,0.0,0.0
-9.313445091247559,1.1037269830703735,3.184288263320923,-0.09853696823120117,0.07350324839353561,0.055393751710653305,0.0,0.0,0.0
-9.318233489990234,1.0989385843276978,3.1675288677215576,-0.0974716991186142,0.07137271761894226,0.05592638626694679,0.0,0.0,0.0
-9.32541561126709,1.1180921792984009,3.157952070236206,-0.09587380290031433,0.06604639440774918,0.05432849004864693,0.0,0.0,0.0
-9.346963882446289,1.1204863786697388,3.1866824626922607,-0.0974716991186142,0.0649811327457428,0.0511326938867569,0.0,0.0,0.0
-9.334992408752441,1.1324573755264282,3.1723172664642334,-0.10066749155521393,0.06391587108373642,0.05645901709794998,0.0,0.0,0.0
-9.318233489990234,1.1276689767837524,3.1531636714935303,-0.1065264493227005,0.0697748214006424,0.06072007492184639,0.0,0.0,0.0
-9.306262016296387,1.1228805780410767,3.1435868740081787,-0.1113201379776001,0.07243798673152924,0.062317971140146255,0.0,0.0,0.0
-9.301473617553711,1.1300631761550903,3.1531636714935303,-0.11078750342130661,0.07776430994272232,0.06072007492184639,0.0,0.0,0.0
-9.25598430633545,1.1180921792984009,3.1052796840667725,-0.11185277253389359,0.07723167538642883,0.06338323652744293,0.0,0.0,0.0
-9.311050415039062,1.137245774269104,3.138798475265503,-0.10865698009729385,0.07350324839353561,0.06604639440774918,0.0,0.0,0.0
-9.303868293762207,1.137245774269104,3.184288263320923,-0.10599381476640701,0.06657902896404266,0.06444849818944931,0.0,0.0,0.0
-9.2655611038208,1.1420341730117798,3.1962592601776123,-0.1022653877735138,0.06551376730203629,0.06391587108373642,0.0,0.0,0.0
-9.23682975769043,1.1563994884490967,3.1699230670928955,-0.10439591854810715,0.06764429807662964,0.062317971140146255,0.0,0.0,0.0
-9.210494041442871,1.1468225717544556,3.160346269607544,-0.11025487631559372,0.06870955973863602,0.06285060197114944,0.0,0.0,0.0
-9.241618156433105,1.1659762859344482,3.179499864578247,-0.11238539963960648,0.06657902896404266,0.0601874440908432,0.0,0.0,0.0
-9.241618156433105,1.1779472827911377,3.177105665206909,-0.11238539963960648,0.06285060197114944,0.06285060197114944,0.0,0.0,0.0
-9.232041358947754,1.1803414821624756,3.1459810733795166,-0.11185277253389359,0.06444849818944931,0.06285060197114944,0.0,0.0,0.0
-9.210494041442871,1.1875240802764893,3.1244332790374756,-0.11398330330848694,0.06870955973863602,0.06285060197114944,0.0,0.0,0.0
-9.169792175292969,1.216254472732544,3.160346269607544,-0.11717909574508667,0.07350324839353561,0.06072007492184639,0.0,0.0,0.0
-9.188945770263672,1.1971008777618408,3.157952070236206,-0.11717909574508667,0.07456851750612259,0.05965480953454971,0.0,0.0,0.0
-9.17936897277832,1.1755530834197998,3.134010076522827,-0.1203748881816864,0.07456851750612259,0.062317971140146255,0.0,0.0,0.0
-9.17936897277832,1.170764684677124,3.1316158771514893,-0.1203748881816864,0.07243798673152924,0.06444849818944931,0.0,0.0,0.0
-9.174580574035645,1.1899182796478271,3.138798475265503,-0.1203748881816864,0.07030745595693588,0.0649811327457428,0.0,0.0,0.0
-9.138668060302734,1.2114660739898682,3.136404275894165,-0.11664646118879318,0.0692421942949295,0.06125270947813988,0.0,0.0,0.0
-9.150638580322266,1.1611878871917725,3.1196448802948,-0.11504856497049332,0.0692421942949295,0.05965480953454971,0.0,0.0,0.0
-9.186552047729492,1.1779472827911377,3.095702886581421,-0.11398330330848694,0.0692421942949295,0.06072007492184639,0.0,0.0,0.0
-9.188945770263672,1.2066776752471924,3.1052796840667725,-0.11771172285079956,0.06817692518234253,0.06285060197114944,0.0,0.0,0.0
-9.191340446472168,1.2090718746185303,3.1244332790374756,-0.11930961906909943,0.0697748214006424,0.0649811327457428,0.0,0.0,0.0
-9.205705642700195,1.1827356815338135,3.1244332790374756,-0.125168576836586,0.07190535217523575,0.06444849818944931,0.0,0.0,0.0
-9.181763648986816,1.1994950771331787,3.1004912853240967,-0.12783174216747284,0.07297061383724213,0.06338323652744293,0.0,0.0,0.0
-9.2033109664917,1.192312479019165,3.134010076522827,-0.1294296383857727,0.07190535217523575,0.0601874440908432,0.0,0.0,0.0
-9.208099365234375,1.1683704853057861,3.1220390796661377,-0.1257012039422989,0.06870955973863602,0.06391587108373642,0.0,0.0,0.0
-9.23443603515625,1.1540051698684692,3.1004912853240967,-0.12303804606199265,0.06657902896404266,0.06604639440774918,0.0,0.0,0.0
-9.282320022583008,1.1659762859344482,3.1004912853240967,-0.12729910016059875,0.0649811327457428,0.06764429807662964,0.0,0.0,0.0
-9.299079895019531,1.1851298809051514,3.117250680923462,-0.12889699637889862,0.06444849818944931,0.06551376730203629,0.0,0.0,0.0
-9.25598430633545,1.1851298809051514,3.117250680923462,-0.13102753460407257,0.06711166352033615,0.06657902896404266,0.0,0.0,0.0
-9.279926300048828,1.1851298809051514,3.114856481552124,-0.12676647305488586,0.0697748214006424,0.0649811327457428,0.0,0.0,0.0
-9.318233489990234,1.1971008777618408,3.1100680828094482,-0.1304948925971985,0.07190535217523575,0.06604639440774918,0.0,0.0,0.0
-9.339780807495117,1.194706678390503,3.1100680828094482,-0.13315805792808533,0.07243798673152924,0.06444849818944931,0.0,0.0,0.0
-9.342175483703613,1.1563994884490967,3.114856481552124,-0.13528859615325928,0.07563377916812897,0.06817692518234253,0.0,0.0,0.0
-9.296685218811035,1.1683704853057861,3.1004912853240967,-0.13262543082237244,0.07563377916812897,0.06551376730203629,0.0,0.0,0.0
-9.270349502563477,1.170764684677124,3.098097085952759,-0.13102753460407257,0.07456851750612259,0.06604639440774918,0.0,0.0,0.0
-9.28950309753418,1.1875240802764893,3.090914487838745,-0.1336906999349594,0.0697748214006424,0.06711166352033615,0.0,0.0,0.0
-9.320627212524414,1.2090718746185303,3.0885202884674072,-0.13741911947727203,0.0692421942949295,0.07243798673152924,0.0,0.0,0.0
-9.320627212524414,1.2186486721038818,3.093308687210083,-0.13688649237155914,0.07190535217523575,0.0740358829498291,0.0,0.0,0.0
-9.308656692504883,1.2186486721038818,3.066972494125366,-0.13582122325897217,0.07243798673152924,0.07137271761894226,0.0,0.0,0.0
-9.349357604980469,1.2306196689605713,3.0597898960113525,-0.1342233270406723,0.07510114461183548,0.07084009051322937,0.0,0.0,0.0
-9.332598686218262,1.2186486721038818,3.0645782947540283,-0.13582122325897217,0.07350324839353561,0.07297061383724213,0.0,0.0,0.0
-9.306262016296387,1.192312479019165,3.0765492916107178,-0.1342233270406723,0.07669904083013535,0.07723167538642883,0.0,0.0,0.0
-9.301473617553711,1.170764684677124,3.0813376903533936,-0.138484388589859,0.07350324839353561,0.07510114461183548,0.0,0.0,0.0
-9.306262016296387,1.1827356815338135,3.0573956966400146,-0.14061491191387177,0.07350324839353561,0.07456851750612259,0.0,0.0,0.0
-9.294291496276855,1.1899182796478271,3.0837318897247314,-0.14540860056877136,0.07243798673152924,0.07350324839353561,0.0,0.0,0.0
-9.284714698791504,1.1994950771331787,3.0789434909820557,-0.14274543523788452,0.07243798673152924,0.07563377916812897,0.0,0.0,0.0
-9.282320022583008,1.2042834758758545,3.052607297897339,-0.14221280813217163,0.07137271761894226,0.07669904083013535,0.0,0.0,0.0
-9.296685218811035,1.1994950771331787,3.050213098526001,-0.1432780772447586,0.0692421942949295,0.07563377916812897,0.0,0.0,0.0
-9.334992408752441,1.1875240802764893,3.1100680828094482,-0.14647386968135834,0.0692421942949295,0.07616641372442245,0.0,0.0,0.0
-9.308656692504883,1.1683704853057861,3.0885202884674072,-0.1486043930053711,0.07137271761894226,0.0740358829498291,0.0,0.0,0.0
-9.279926300048828,1.1827356815338135,3.0573956966400146,-0.14700649678707123,0.07350324839353561,0.07350324839353561,0.0,0.0,0.0
-9.258378028869629,1.1755530834197998,3.0358476638793945,-0.14753912389278412,0.07616641372442245,0.07510114461183548,0.0,0.0,0.0
-9.260772705078125,1.1611878871917725,3.0382418632507324,-0.14700649678707123,0.07829693704843521,0.07829693704843521,0.0,0.0,0.0
-9.284714698791504,1.1659762859344482,3.0645782947540283,-0.14700649678707123,0.07829693704843521,0.08575379103422165,0.0,0.0,0.0
-9.327810287475586,1.1444283723831177,3.0310592651367188,-0.14647386968135834,0.0788295716047287,0.08948221802711487,0.0,0.0,0.0
-9.32541561126709,1.1420341730117798,3.0430305004119873,-0.1486043930053711,0.07616641372442245,0.09001485258340836,0.0,0.0,0.0
-9.32302188873291,1.1492167711257935,3.0430305004119873,-0.15020228922367096,0.07084009051322937,0.08894958347082138,0.0,0.0,0.0
-9.337387084960938,1.1563994884490967,3.047818899154663,-0.15180018544197083,0.06711166352033615,0.08681905269622803,0.0,0.0,0.0
-9.370905876159668,1.1563994884490967,3.0645782947540283,-0.15180018544197083,0.06764429807662964,0.08894958347082138,0.0,0.0,0.0
-9.390059471130371,1.1492167711257935,3.0119056701660156,-0.1576591432094574,0.07350324839353561,0.0884169489145279,0.0,0.0,0.0
-9.390059471130371,1.1540051698684692,3.026270866394043,-0.15925703942775726,0.07936220616102219,0.09054747968912125,0.0,0.0,0.0
-9.378087997436523,1.170764684677124,3.0119056701660156,-0.16298545897006989,0.07723167538642883,0.08894958347082138,0.0,0.0,0.0
-9.373299598693848,1.170764684677124,2.999934673309326,-0.16138756275177002,0.07563377916812897,0.09001485258340836,0.0,0.0,0.0
-9.378087997436523,1.1563994884490967,3.0095114707946777,-0.1581917703151703,0.07030745595693588,0.09161274880170822,0.0,0.0,0.0
-9.375694274902344,1.1563994884490967,3.047818899154663,-0.1571265161037445,0.0740358829498291,0.09480854123830795,0.0,0.0,0.0
-9.378087997436523,1.137245774269104,3.0334534645080566,-0.15552861988544464,0.07723167538642883,0.09906959533691406,0.0,0.0,0.0
-9.390059471130371,1.1683704853057861,3.0310592651367188,-0.15872441232204437,0.08149272948503494,0.09693906456232071,0.0,0.0,0.0
-9.375694274902344,1.1827356815338135,3.0142998695373535,-0.16032230854034424,0.0830906331539154,0.0974716991186142,0.0,0.0,0.0
-9.339780807495117,1.1827356815338135,2.999934673309326,-0.162452831864357,0.0836232602596283,0.09587380290031433,0.0,0.0,0.0
-9.313445091247559,1.1971008777618408,3.023876667022705,-0.16351810097694397,0.08415589481592178,0.10013486444950104,0.0,0.0,0.0
-9.339780807495117,1.1755530834197998,3.0382418632507324,-0.1619202047586441,0.08096010237932205,0.09853696823120117,0.0,0.0,0.0
-9.32302188873291,1.1563994884490967,2.9975404739379883,-0.1619202047586441,0.0830906331539154,0.10066749155521393,0.0,0.0,0.0
-9.327810287475586,1.1516109704971313,2.9879636764526367,-0.16032230854034424,0.08255799859762192,0.09587380290031433,0.0,0.0,0.0
-9.332598686218262,1.1563994884490967,2.9951462745666504,-0.16032230854034424,0.08415589481592178,0.10013486444950104,0.0,0.0,0.0
-9.303868293762207,1.1659762859344482,2.9903578758239746,-0.1619202047586441,0.08042746782302856,0.09853696823120117,0.0,0.0,0.0
-9.272743225097656,1.1587936878204346,2.9688100814819336,-0.1661812663078308,0.07829693704843521,0.10279802232980728,0.0,0.0,0.0
-9.260772705078125,1.1899182796478271,2.9903578758239746,-0.16511599719524384,0.07669904083013535,0.10279802232980728,0.0,0.0,0.0
-9.260772705078125,1.1899182796478271,3.004723072052002,-0.16298545897006989,0.07936220616102219,0.10759171098470688,0.0,0.0,0.0
-9.258378028869629,1.1827356815338135,2.9975404739379883,-0.16138756275177002,0.07829693704843521,0.10546118766069412,0.0,0.0,0.0
-9.248801231384277,1.1875240802764893,2.983175277709961,-0.16405072808265686,0.07829693704843521,0.10386328399181366,0.0,0.0,0.0
-9.23443603515625,1.1899182796478271,3.0142998695373535,-0.1672465205192566,0.07669904083013535,0.0974716991186142,0.0,0.0,0.0
-9.215282440185547,1.1827356815338135,2.978386878967285,-0.1709749549627304,0.08042746782302856,0.09906959533691406,0.0,0.0,0.0
-9.17936897277832,1.1994950771331787,2.9496564865112305,-0.17310547828674316,0.08628642559051514,0.09960222989320755,0.0,0.0,0.0
-9.155426979064941,1.213860273361206,2.935291290283203,-0.17417074739933014,0.08894958347082138,0.10120012611150742,0.0,0.0,0.0
-9.160215377807617,1.213860273361206,2.940079689025879,-0.17417074739933014,0.09054747968912125,0.1022653877735138,0.0,0.0,0.0
-9.198522567749023,1.2042834758758545,2.96162748336792,-0.17523600161075592,0.08575379103422165,0.10279802232980728,0.0,0.0,0.0
-9.198522567749023,1.2042834758758545,2.9448680877685547,-0.1720402091741562,0.08096010237932205,0.10546118766069412,0.0,0.0,0.0
-9.2033109664917,1.2186486721038818,2.9328970909118652,-0.1709749549627304,0.07829693704843521,0.10439591854810715,0.0,0.0,0.0
-9.215282440185547,1.2114660739898682,2.935291290283203,-0.1709749549627304,0.07829693704843521,0.09906959533691406,0.0,0.0,0.0
-9.220070838928223,1.2018892765045166,2.9472622871398926,-0.17310547828674316,0.08255799859762192,0.09906959533691406,0.0,0.0,0.0
-9.198522567749023,1.235408067703247,2.9520506858825684,-0.1720402091741562,0.08202536404132843,0.09960222989320755,0.0,0.0,0.0
-9.217676162719727,1.213860273361206,2.937685489654541,-0.16990968585014343,0.08096010237932205,0.10279802232980728,0.0,0.0,0.0
-9.215282440185547,1.2258312702178955,2.913743495941162,-0.1720402091741562,0.07989483326673508,0.10013486444950104,0.0,0.0,0.0
-9.222464561462402,1.2234370708465576,2.9017724990844727,-0.1763012707233429,0.07936220616102219,0.1022653877735138,0.0,0.0,0.0
-9.220070838928223,1.2306196689605713,2.9017724990844727,-0.18322549760341644,0.0836232602596283,0.09800433367490768,0.0,0.0,0.0
-9.193734169006348,1.2641384601593018,2.9017724990844727,-0.1805623322725296,0.08468852937221527,0.09906959533691406,0.0,0.0,0.0
